Folder: XAS_database/root/data (part 8)

File: Ti_foil_311.xdi
# XDI/1.0 Demeter/0.9.26
# Beamline.name: BM08-LISA
# Column.1: energy eV
# Column.2: mutrans
# Element.edge: K
# Element.symbol: Ti
# Facility.name: ESRF
# Facility.xray_source: Bending magnet
# Mono.d_spacing: 1.637039
# Mono.name: Si(311)
# Mono.notes: LNT cooled
# Sample.formula: Ti
# Sample.name: Ti metal foil
# Scan.start_time: 2017-06-21T15:01:17
# ///
# room temperature
#------------------------
#   energy  mutrans
  4907.58      -0.585406
  4917.58      -0.59679
  4927.55      -0.607838
  4937.53      -0.618877
  4947.45      -0.62848
  4948.41      -0.629643
  4949.4      -0.630384
  4950.39      -0.631025
  4951.37      -0.631871
  4952.37      -0.632584
  4953.38      -0.633053
  4954.38      -0.633562
  4955.38      -0.634163
  4956.38      -0.634502
  4957.38      -0.634964
  4958.37      -0.635193
  4959.38      -0.634626
  4960.4      -0.634345
  4961.4      -0.633288
  4962.4      -0.63157
  4963.4      -0.627951
  4964.39      -0.621709
  4965.39      -0.607725
  4966.39      -0.567674
  4967.4      -0.316346
  4968.39      -0.0515207
  4969.38      -0.249757
  4970.39      -0.246393
  4971.39      -0.149392
  4972.4      -0.0842811
  4973.41      -0.0623833
  4974.41       0.00338557
  4975.42       0.123719
  4976.44       0.244149
  4977.46       0.352527
  4978.48       0.460926
  4979.49       0.550249
  4980.5       0.626331
  4981.5       0.672724
  4982.5       0.701367
  4983.51       0.721496
  4984.52       0.739769
  4985.53       0.7565
  4986.55       0.757598
  4987.58       0.73733
  4988.65       0.706111
  4989.74       0.685065
  4990.85       0.678266
  4992       0.675127
  4993.18       0.669712
  4994.4       0.661403
  4995.62       0.654954
  4996.88       0.662919
  4998.15       0.688904
  4999.44       0.731927
  5000.78       0.777139
  5002.13       0.802464
  5003.52       0.804969
  5004.94       0.799389
  5006.38       0.793293
  5007.85       0.775708
  5009.35       0.737503
  5010.88       0.690114
  5012.43       0.652507
  5014       0.631567
  5015.6       0.617568
  5017.23       0.603162
  5018.88       0.587432
  5020.57       0.571896
  5022.27       0.559167
  5024       0.548684
  5025.77       0.542775
  5027.55       0.544922
  5029.37       0.551268
  5031.21       0.561488
  5033.06       0.58247
  5034.97       0.61585
  5036.91       0.65406
  5038.89       0.686729
  5040.87       0.707496
  5042.88       0.710722
  5044.95       0.702427
  5047.03       0.684426
  5049.13       0.658044
  5051.26       0.623241
  5053.42       0.583871
  5055.6       0.546177
  5057.8       0.520169
  5060.05       0.507277
  5062.37       0.504896
  5064.71       0.499405
  5067.05       0.487868
  5069.41       0.474011
  5071.82       0.463832
  5074.27       0.456081
  5076.69       0.458307
  5079.18       0.47048
  5081.68       0.491583
  5084.2       0.519402
  5086.73       0.550018
  5089.28       0.579053
  5091.87       0.601138
  5094.5       0.604331
  5097.17       0.582749
  5099.84       0.541783
  5102.55       0.492487
  5105.26       0.448162
  5108       0.419633
  5110.76       0.409753
  5113.57       0.407758
  5116.41       0.405115
  5119.26       0.401868
  5122.12       0.398881
  5125.03       0.393306
  5128       0.385017
  5130.96       0.376709
  5133.99       0.372004
  5137.03       0.371751
  5140.1       0.377626
  5143.19       0.387211
  5146.28       0.398205
  5149.43       0.410104
  5152.65       0.415275
  5155.89       0.407915
  5159.15       0.391207
  5162.43       0.372211
  5165.77       0.354814
  5169.07       0.342325
  5172.44       0.328043
  5175.83       0.309877
  5179.21       0.29144
  5182.61       0.278749
  5186.05       0.271328
  5189.53       0.267632
  5193.03       0.264566
  5196.57       0.262159
  5200.09       0.260859
  5203.64       0.260665
  5207.25       0.261808
  5210.87       0.26355
  5214.49       0.263866
  5218.15       0.260435
  5221.89       0.252709
  5225.62       0.244636
  5229.42       0.237844
  5233.2       0.231441
  5237.03       0.222611
  5240.9       0.211298
  5244.76       0.200394
  5248.72       0.188333
  5252.71       0.176965
  5256.7       0.165922
  5260.76       0.156236
  5264.79       0.149253
  5268.88       0.14337
  5272.98       0.140378
  5277.08       0.138035
  5281.18       0.135917
  5285.34       0.132802
  5289.55       0.129659
  5293.76       0.124582
  5298       0.116806
  5302.24       0.109738
  5306.52       0.10239
  5310.83       0.0965968
  5315.11       0.089973
  5319.48       0.0829334
  5323.89       0.075597
  5328.33       0.067923
  5332.78       0.0594435
  5337.28       0.0511842
  5341.81       0.0423043
  5346.32       0.0326053
  5350.93       0.0238493
  5355.57       0.016805
  5360.26       0.0112348
  5364.99       0.00686869
  5369.66       0.00286233
  5374.41      -0.00123833
  5379.13      -0.00630501
  5383.87      -0.0124626
  5388.66      -0.0194662
  5393.49      -0.0266938
  5398.33      -0.0336993
  5403.2      -0.0402084
  5408.05      -0.0472758
  5412.98      -0.0547442
  5417.89      -0.061743
  5422.83      -0.0688224
  5427.85      -0.0769392
  5432.89      -0.0844239
  5437.95      -0.0920639
  5443.04      -0.0988199
  5448.18      -0.106482
  5453.29      -0.112387
  5458.51      -0.119034
  5463.75      -0.125085
  5469.05      -0.131441
  5474.36      -0.138069
  5479.67      -0.144095
  5484.98      -0.15074
  5490.33      -0.156702
  5495.66      -0.164488
  5501.08      -0.170818
  5506.47      -0.176896
  5511.93      -0.183929
  5517.39      -0.19047