Folder: XAS_database/root/data (part 6)

File: SnO_311.xdi
# XDI/1.0 Demeter/0.9.26
# Beamline.name: BM08-LISA
# Column.1: energy eV
# Column.2: mutrans
# Column.3: murefer
# Element.edge: K
# Element.symbol: Sn
# Facility.name: ESRF
# Facility.xray_source: Bending magnet
# Mono.d_spacing: 1.637039
# Mono.name: Si(311)
# Mono.notes: LNT cooled
# Sample.formula: SnO
# Sample.name: Tin(II) oxide, Stannous oxide
# Sample.reference: Sn metal foil
# Scan.start_time: 2023-10-01T16:47:45
# ///
# room temperature
#------------------------
#  energy  mutrans  murefer
  28853.846      -0.514601       0.0661779
  28863.140      -0.515134       0.0661036
  28872.783      -0.515389       0.0657214
  28883.071      -0.515554       0.0653155
  28893.023      -0.515807       0.0651837
  28902.672      -0.515797       0.0651
  28912.843      -0.516368       0.0647465
  28922.730      -0.516809       0.0646124
  28932.375      -0.51695       0.0639826
  28942.423      -0.517153       0.0635012
  28952.484      -0.517125       0.0632203
  28962.249      -0.51731       0.0631267
  28972.026      -0.517557       0.0629529
  28982.180      -0.517709       0.0632148
  28991.951      -0.517802       0.0626995
  29001.744      -0.518191       0.0628122
  29011.846      -0.519772       0.0632518
  29021.743      -0.51838       0.0633973
  29031.594      -0.519175       0.0640226
  29041.371      -0.519033       0.0642923
  29051.240      -0.518992       0.0648224
  29061.271      -0.519134       0.0656022
  29071.072      -0.518872       0.065963
  29080.716      -0.518396       0.0668062
  29090.898      -0.518009       0.068095
  29100.840      -0.517618       0.0696992
  29110.436      -0.516944       0.0720557
  29120.459      -0.516353       0.074792
  29130.689      -0.514666       0.0786288
  29140.231      -0.512418       0.0842379
  29150.145      -0.508522       0.0922343
  29160.395      -0.502735       0.10493
  29170.356      -0.493077       0.127145
  29180.275      -0.472061       0.175762
  29186.021      -0.447759       0.234859
  29187.048      -0.440461       0.253136
  29187.929      -0.433303       0.271124
  29188.849      -0.425739       0.291699
  29190.002      -0.415012       0.319675
  29191.039      -0.404069       0.348846
  29192.231      -0.388403       0.39158
  29193.142      -0.37294       0.435097
  29194.159      -0.35066       0.499151
  29194.987      -0.328173       0.565869
  29195.995      -0.295766       0.665386
  29196.930      -0.260711       0.774494
  29197.914      -0.219375       0.905963
  29199.131      -0.159213        1.0957
  29200.105      -0.100252        1.27862
  29201.153      -0.0253662    1.49985
  29202.010       0.0388628    1.6758
  29203.014       0.103032        1.83647
  29203.890       0.142414        1.92212
  29204.836       0.165565        1.95989
  29206.020       0.174756        1.95124
  29207.053       0.171454        1.91435
  29208.193       0.154712        1.85504
  29209.100       0.13496        1.80439
  29210.113       0.107912        1.75291
  29210.971       0.0865429    1.72082
  29212.058       0.0663149    1.6928
  29213.048       0.0529644    1.67642
  29214.106       0.0436868    1.66527
  29215.325       0.0368273    1.65625
  29216.285       0.0309666    1.65144
  29217.353       0.0240057    1.64789
  29218.231       0.0160859    1.64665
  29219.280       0.00651869    1.64902
  29220.226      -0.0030669    1.6498
  29221.231      -0.012649    1.6551
  29222.465      -0.0228925    1.66119
  29223.465      -0.0301983    1.66611
  29224.538      -0.0380708    1.66985
  29225.397      -0.0418241    1.67144
  29226.383      -0.0455455    1.67117
  29227.256      -0.0470273    1.66867
  29228.188      -0.0479613    1.66534
  29229.355      -0.0449108    1.65867
  29230.384      -0.0418496    1.65132
  29231.971      -0.0336753    1.63637
  29234.133      -0.016577    1.61455
  29236.277      -0.00148144    1.6071
  29238.992       0.00786832    1.61986
  29241.239       0.00780726    1.64369
  29243.657       0.0050783    1.66807
  29246.618       0.00547193    1.69067
  29249.218       0.0147271    1.7097
  29252.023       0.0292608    1.71686
  29255.093       0.040156    1.70534
  29257.851       0.0414973    1.68137
  29260.883       0.0344871    1.65511
  29263.892       0.0226772    1.63496
  29266.803       0.0121592    1.62521
  29270.322       0.00140377    1.62828
  29273.454      -0.00637906    1.63948
  29276.955      -0.0120048    1.65591
  29280.471      -0.0110991    1.67781
  29284.179      -0.0055034    1.69802
  29287.893      -0.00131632    1.70196
  29291.373       0.00238074    1.69044
  29295.265       0.00469734    1.67376
  29299.012       0.0065728    1.6606
  29303.122       0.00638616    1.6532
  29306.944       0.00559394    1.65316
  29311.277       0.00823906    1.65694
  29315.371       0.0119938    1.66509
  29319.673       0.0153615    1.67321
  29323.892       0.0164924    1.67816
  29328.127       0.0152826    1.67977
  29332.668       0.0125324    1.6801
  29337.039       0.00900422    1.67714
  29341.917       0.00644288    1.67252
  29346.581       0.00364497    1.6682
  29351.369       0.0016927    1.66585
  29356.193       0.00137573    1.66451
  29360.989       0.00152995    1.66438
  29366.097       0.00174139    1.66604
  29371.217       0.00205369    1.66748
  29376.442       0.00218539    1.66853
  29381.970       0.00296204    1.66966
  29387.184       0.00246041    1.66762
  29392.361       0.00233108    1.66407
  29397.944       0.00232317    1.6599
  29403.663       0.00189133    1.65509
  29409.359       0.00279251    1.65181
  29415.167       0.00205213    1.64974
  29421.041       0.00244649    1.64867
  29426.862       0.00137052    1.64801
  29432.593       0.000118305    1.64895
  29438.652      -0.00222592    1.64903
  29445.050      -0.00324379    1.64841
  29451.030      -0.00429054    1.64553
  29456.939      -0.00588247    1.64123
  29463.236      -0.00690199    1.63702
  29469.809      -0.00701882    1.63274
  29476.395      -0.00645398    1.62939
  29482.910      -0.00649291    1.62521
  29489.407      -0.00597477    1.62298
  29496.012      -0.00632856    1.62178
  29502.823      -0.00737484    1.62152
  29509.792      -0.00846574    1.62058
  29516.680      -0.00945628    1.62004
  29523.696      -0.0107404    1.6182
  29530.769      -0.011075    1.61503
  29538.051      -0.011761    1.61121
  29545.166      -0.0124517    1.60751
  29552.140      -0.0117928    1.60411
  29559.383      -0.0121936    1.60025
  29566.953      -0.013431    1.59745
  29574.467      -0.0152797    1.59553
  29581.851      -0.0166551    1.59432
  29589.463      -0.0177874    1.59313
  29597.229      -0.0189771    1.59085
  29605.139      -0.0199904    1.58936
  29612.884      -0.0197104    1.58787
  29620.793      -0.0196092    1.58524
  29628.856      -0.0193397    1.58235
  29636.919      -0.0198891    1.57916
  29645.007      -0.0211231    1.57666
  29653.275      -0.0220994    1.57315
  29661.678      -0.0235751    1.57036
  29670.091      -0.0247337    1.56841
  29678.509      -0.0256747    1.56659
  29687.057      -0.0267403    1.56551
  29695.782      -0.02691    1.56314
  29704.800      -0.0262743    1.56202
  29713.586      -0.0272414    1.55946
  29722.710      -0.0277153    1.55678
  29732.032      -0.0298491    1.55505
  29740.940      -0.030317    1.55273
  29750.081      -0.0316902    1.55011
  29759.233      -0.0322946    1.54838
  29768.735      -0.0324647    1.54595
  29777.964      -0.0336871    1.54401
  29787.549      -0.0329788    1.54264
  29797.303      -0.0336744    1.54102
  29806.723      -0.0339519    1.53932
  29816.108      -0.0348418    1.53724
  29825.937      -0.0357534    1.5359
  29835.863      -0.0367684    1.53371
  29845.771      -0.0376117    1.53087
  29855.624      -0.0383075    1.52843
  29865.448      -0.0390414    1.5266
  29875.478      -0.0396837    1.52434
  29885.754      -0.0405942    1.52247
  29896.042      -0.0407071    1.52042
  29906.041      -0.0411073    1.51904
  29916.416      -0.0422599    1.51656
  29927.160      -0.0429784    1.51511
  29937.462      -0.0437045    1.51303
  29947.940      -0.0447284    1.51144
  29959.103      -0.0453998    1.50942
  29969.684      -0.0462803    1.50817
  29980.390      -0.0472776    1.50623
  29991.474      -0.0474887    1.50435
  30002.423      -0.0480501    1.50256
  30013.132      -0.0486842    1.5005
  30024.576      -0.049535    1.49819
  30035.657      -0.0502393    1.49645
  30046.741      -0.051516    1.49432
  30058.515      -0.0524391    1.49258
  30069.911      -0.0524069    1.49092
  30081.367      -0.0536848    1.48828
  30093.355      -0.0545368    1.48611
  30104.736      -0.0550219    1.48448
  30116.742      -0.0559783    1.48214
  30128.546      -0.0562286    1.48042
  30140.587      -0.0578246    1.47779
  30152.430      -0.0585116    1.47599
  30164.605      -0.0592016    1.47408
  30176.566      -0.0598072    1.47252
  30182.704      -0.059975    1.47099

File: SnO_311_100K.xdi
# XDI/1.0 Demeter/0.9.26
# Beamline.name: BM08-LISA
# Column.1: energy eV
# Column.2: mutrans
# Column.3: murefer
# Element.edge: K
# Element.symbol: Sn
# Facility.name: ESRF
# Facility.xray_source: Bending magnet
# Mono.d_spacing: 1.637039
# Mono.name: Si(311)
# Mono.notes: LNT cooled
# Sample.formula: SnO
# Sample.name: Tin(II) oxide, Stannous oxide
# Sample.reference: Sn metal foil
# Sample.temperature: 100 K
# Scan.start_time: 2023-09-28T18:57:27
# ///
#------------------------
#  energy  mutrans  murefer
  28854.026      -0.559719       0.0614232
  28863.059      -0.560013       0.0607045
  28872.607      -0.560274       0.0601954
  28882.799      -0.560479       0.0597995
  28892.742      -0.560778       0.0595674
  28902.362      -0.561059       0.0593636
  28912.466      -0.561351       0.0588957
  28922.410      -0.561673       0.0587872
  28932.069      -0.561795       0.0585974
  28942.064      -0.562002       0.0585139
  28952.129      -0.562169       0.058069
  28961.943      -0.562372       0.0581507
  28971.720      -0.562513       0.0576941
  28981.853      -0.562782       0.0577708
  28991.682      -0.563051       0.057193
  29001.498      -0.563087       0.0573311
  29011.596      -0.563223       0.057569
  29021.507      -0.563313       0.0580065
  29031.392      -0.5634       0.0589007
  29041.159      -0.56336       0.0596847
  29050.990      -0.563438       0.0603071
  29061.044      -0.563147       0.0611603
  29070.860      -0.562912       0.0615895
  29080.498      -0.562533       0.0621234
  29090.656      -0.561927       0.0628659
  29100.666      -0.561343       0.0643319
  29110.261      -0.560318       0.0664086
  29120.270      -0.559081       0.0696889
  29130.509      -0.557276       0.0736882
  29140.062      -0.554766       0.0782669
  29149.926      -0.550869       0.0861531
  29160.167      -0.544485       0.0984366
  29170.147      -0.533447       0.119874
  29180.057      -0.509636       0.166516
  29185.826      -0.48219       0.221978
  29186.878      -0.473843       0.239265
  29187.758      -0.465804       0.256124
  29188.683      -0.456873       0.275198
  29189.837      -0.444831       0.301602
  29190.873      -0.432756       0.328216
  29192.051      -0.41563       0.366242
  29192.971      -0.398806       0.405053
  29193.994      -0.374613       0.461887
  29194.822      -0.34997       0.521543
  29195.820      -0.314817       0.609574
  29196.735      -0.276996       0.705829
  29197.704      -0.231614       0.822668
  29198.912      -0.165472       0.99297
  29199.891      -0.098634    1.16184
  29200.953      -0.0097759    1.37699
  29201.815       0.0708892    1.55989
  29202.804       0.159514        1.74518
  29203.671       0.220335        1.8593
  29204.602       0.262131        1.92495
  29205.766       0.286447        1.9436
  29206.794       0.289902        1.92152
  29207.954       0.277669        1.87137
  29208.871       0.256418        1.81974
  29209.884       0.225181        1.76498
  29210.737       0.196882        1.72738
  29211.795       0.167295        1.69441
  29212.760       0.147614        1.6747
  29213.799       0.133539        1.66092
  29215.027       0.122063        1.64951
  29216.007       0.115121        1.64379
  29217.095       0.106659        1.63876
  29217.973       0.0981309    1.63695
  29219.007       0.0863591    1.63748
  29219.933       0.0748123    1.6399
  29220.918       0.0625136    1.64391
  29222.143       0.0487071    1.64984
  29223.158       0.037702    1.65489
  29224.241       0.0271067    1.66015
  29225.114       0.0199018    1.66237
  29226.100       0.0136369    1.66333
  29226.958       0.0103347    1.66277
  29227.866       0.00877574    1.66015
  29229.008       0.00958306    1.655
  29230.043       0.0122705    1.64897
  29231.654       0.0214783    1.63551
  29233.826       0.0430327    1.61305
  29235.920       0.0639565    1.60035
  29238.636       0.0796168    1.60804
  29240.912       0.0824086    1.62938
  29243.286       0.0774404    1.65484
  29246.217       0.0747568    1.6786
  29248.861       0.0843173    1.69867
  29251.603       0.104087        1.71027
  29254.678       0.12307        1.70382
  29257.450       0.130594        1.68206
  29260.389       0.122535        1.65543
  29263.461       0.105828        1.63276
  29266.319       0.0893501    1.61995
  29269.778       0.0757881    1.62004
  29272.945       0.0635819    1.62982
  29276.314       0.0542798    1.6439
  29279.913       0.0530167    1.66526
  29283.469       0.0606168    1.68703
  29287.271       0.0681378    1.69487
  29290.633       0.0731371    1.68752
  29294.589       0.0767284    1.67121
  29298.237       0.0795105    1.65641
  29302.386       0.0795453    1.64743
  29306.085       0.0778819    1.64546
  29310.477       0.0790454    1.64877
  29314.419       0.0848676    1.65527
  29318.848       0.0923342    1.6639
  29322.855       0.0960609    1.67073
  29327.238       0.0941388    1.67326
  29331.552       0.089968    1.67333
  29336.045       0.086044    1.67112
  29340.845       0.0808382    1.66698
  29345.405       0.0767753    1.66202
  29350.330       0.0738876    1.6585
  29354.908       0.0719217    1.65707
  29359.812       0.07298    1.65634
  29364.895       0.0757657    1.65729
  29369.778       0.0750226    1.65797
  29375.155       0.0745233    1.65963
  29380.604       0.0752112    1.6604
  29385.541       0.0755916    1.65958
  29390.880       0.075944    1.65699
  29396.384       0.0765027    1.65315
  29401.796       0.0764041    1.64839
  29407.561       0.0766133    1.64407
  29413.481       0.0773352    1.64086
  29419.127       0.0774245    1.63964
  29424.710       0.0758708    1.6392
  29430.623       0.0728102    1.63937
  29436.726       0.0708995    1.63992
  29442.866       0.0691101    1.64024
  29448.553       0.0678065    1.63839
  29454.614       0.0659115    1.63476
  29461.039       0.0636229    1.63051
  29467.492       0.0618743    1.62557
  29473.799       0.0618484    1.62198
  29480.124       0.0636031    1.61849
  29486.714       0.0643099    1.61536
  29493.482       0.065389    1.61435
  29500.342       0.0653619    1.61391
  29507.235       0.0636971    1.61337
  29513.903       0.0620593    1.61303
  29520.723       0.0604498    1.61121
  29527.730       0.0602215    1.60951
  29535.050       0.0581841    1.60583
  29542.264       0.055662    1.60232
  29549.391       0.0569782    1.59804
  29556.712       0.0590337    1.5948
  29564.271       0.0585613    1.59153
  29571.774       0.05595    1.58923
  29579.091       0.0529333    1.58715
  29586.606       0.050873    1.58623
  29594.241       0.0496392    1.58523
  29602.075       0.0487603    1.58328
  29609.692       0.0477674    1.58169
  29617.489       0.0483547    1.58018
  29625.466       0.0499122    1.57736
  29633.477       0.05087    1.57443
  29641.512       0.0494482    1.57166
  29649.773       0.0473958    1.56852
  29658.194       0.044641    1.56542
  29666.610       0.0431508    1.56349
  29675.011       0.0422832    1.56132
  29683.512       0.0405738    1.55976
  29692.150       0.03916    1.55883
  29701.034       0.0388863    1.5568
  29709.666       0.0402249    1.55519
  29718.556       0.0405642    1.55322
  29727.734       0.0395202    1.55059
  29736.649       0.037456    1.5484
  29745.909       0.0356501    1.54571
  29755.210       0.0334827    1.54373
  29764.781       0.0322798    1.54143
  29773.876       0.0323    1.53937
  29783.174       0.0327685    1.53795
  29792.803       0.0335015    1.53691
  29802.362       0.0332821    1.53518
  29811.948       0.032324    1.53312
  29821.784       0.0307104    1.53112
  29831.392       0.0295174    1.52953
  29841.073       0.0278709    1.52731
  29851.086       0.0260476    1.52555
  29861.228       0.0248017    1.523
  29871.132       0.0244838    1.52087
  29881.074       0.024995    1.51859
  29891.477       0.0250401    1.51678
  29901.810       0.0246789    1.51813
  29912.125       0.0238685    1.51314
  29922.524       0.0224134    1.51145
  29933.012       0.0209762    1.50948
  29943.784       0.0197906    1.50768
  29954.538       0.0184595    1.5057
  29965.060       0.0176603    1.5035
  29976.101       0.0176304    1.50193
  29986.797       0.0177275    1.50052
  29997.495       0.0167153    1.4979
  30008.536       0.0159418    1.4962
  30019.620       0.0150827    1.49477
  30030.553       0.0139034    1.49347
  30041.990       0.0124295    1.49173
  30053.254       0.0108385    1.48964
  30064.816       0.0100866    1.48845
  30076.330       0.00960996    1.48648
  30087.942       0.00924497    1.48478
  30099.728       0.00880476    1.48274
  30111.321       0.00918999    1.48166
  30123.473       0.0076942    1.47842
  30135.297       0.00654842    1.4768
  30147.089       0.00527436    1.47513
  30159.364       0.00392349    1.47284
  30171.055       0.00310884    1.47118
  30177.274       0.00271276    1.47012