Folder: XAS_database/root/data (part 4)

File: Sn_foil_311.xdi
# XDI/1.0 Demeter/0.9.26
# Beamline.name: BM08-LISA
# Column.1: energy eV
# Column.2: mutrans
# Element.edge: K
# Element.symbol: Sn
# Facility.name: ESRF
# Facility.xray_source: Bending magnet
# Mono.d_spacing: 1.637039
# Mono.name: Si(311)
# Mono.notes: LNT cooled
# Sample.formula: Sn
# Sample.name: Sn metal foil
# Scan.start_time: 2023-09-30T20:51:25
# ///
# room temperature
#------------------------
#   energy  mutrans
  28853.817       0.0794211
  28863.083       0.0784554
  28872.721       0.0776771
  28882.999       0.0775551
  28892.961       0.0770802
  28902.600       0.0773227
  28912.752       0.0768063
  28922.653       0.0767659
  28932.303       0.076478
  28942.332       0.0753567
  28952.393       0.0748797
  28962.163       0.0748898
  28971.935       0.0750407
  28982.093       0.0753557
  28991.879       0.0756807
  29001.671       0.076402
  29011.749       0.0766023
  29021.647       0.0758649
  29031.503       0.0763648
  29041.279       0.0761366
  29051.125       0.0765238
  29061.170       0.077234
  29070.976       0.0777028
  29080.638       0.0787504
  29090.782       0.0802809
  29100.738       0.0819341
  29110.315       0.0843183
  29120.319       0.0869753
  29130.558       0.0908162
  29140.105       0.0965685
  29149.999       0.104816
  29160.254       0.118228
  29170.220       0.141014
  29180.134       0.192331
  29185.904       0.255785
  29186.936       0.275716
  29187.807       0.294988
  29188.727       0.31726
  29189.866       0.348945
  29190.898       0.38099
  29192.076       0.427473
  29193.006       0.476549
  29194.052       0.54999
  29194.904       0.628696
  29195.927       0.745017
  29196.857       0.869286
  29197.831        1.01671
  29199.034        1.22223
  29200.003        1.41346
  29201.060        1.63616
  29201.908        1.79996
  29202.901        1.93998
  29203.774        2.00469
  29204.709        2.0233
  29205.883        2.00014
  29206.916        1.95698
  29208.071        1.8948
  29208.978        1.84615
  29210.001        1.79817
  29210.854        1.76854
  29211.932        1.7374
  29212.911        1.721
  29213.964        1.71011
  29215.203        1.70001
  29216.173        1.69502
  29217.251        1.69046
  29218.124        1.6897
  29219.177        1.69237
  29220.123        1.69609
  29221.123        1.70212
  29222.362        1.70825
  29223.372        1.71238
  29224.450        1.71539
  29225.314        1.7152
  29226.309        1.71326
  29227.183        1.70886
  29228.105        1.70365
  29229.281        1.69448
  29230.311        1.68569
  29231.907        1.66836
  29234.075        1.64675
  29236.213        1.64376
  29238.933        1.66138
  29241.190        1.68588
  29243.603        1.713
  29246.579        1.7366
  29249.183        1.75467
  29251.979        1.7578
  29255.054        1.74398
  29257.812        1.71828
  29260.859        1.69409
  29263.867        1.67623
  29266.769        1.6699
  29270.302        1.67589
  29273.440        1.68922
  29276.950        1.70651
  29280.461        1.72781
  29284.175        1.74456
  29287.888        1.74432
  29291.368        1.7303
  29295.265        1.71357
  29299.017        1.70054
  29303.132        1.69515
  29306.958        1.69577
  29311.287        1.70114
  29315.386        1.7096
  29319.702        1.71753
  29323.926        1.72222
  29328.156        1.72424
  29332.698        1.72471
  29337.073        1.72106
  29341.956        1.7166
  29346.625        1.71248
  29351.413        1.70948
  29356.242        1.70927
  29361.033        1.70916
  29366.147        1.71129
  29371.296        1.71307
  29376.531        1.71388
  29382.064        1.71322
  29387.303        1.71109
  29392.479        1.70761
  29398.063        1.70245
  29403.811        1.69869
  29409.522        1.69431
  29415.315        1.69339
  29421.204        1.69291
  29427.085        1.69291
  29432.786        1.69437
  29438.795        1.69457
  29445.204        1.69264
  29451.214        1.68912
  29457.122        1.68458
  29463.400        1.67974
  29469.953        1.67439
  29476.549        1.67291
  29483.088        1.66788
  29489.616        1.66525
  29496.186        1.66421
  29502.987        1.66373
  29509.857        1.66303
  29516.740        1.66252
  29523.775        1.66102
  29530.869        1.65739
  29538.165        1.65341
  29545.311        1.65003
  29552.290        1.6466
  29559.547        1.64373
  29567.123        1.64024
  29574.657        1.638
  29582.061        1.63673
  29589.678        1.63496
  29597.454        1.63352
  29605.390        1.63127
  29613.144        1.62793
  29621.073        1.62484
  29629.137        1.62156
  29637.210        1.61839
  29645.308        1.61662
  29653.586        1.61332
  29662.015        1.61075
  29670.458        1.60836
  29678.891        1.60661
  29687.455        1.60525
  29696.190        1.60321
  29705.243        1.60159
  29714.060        1.59891
  29723.174        1.59696
  29732.466        1.59379
  29741.364        1.59165
  29750.521        1.58979
  29759.704        1.58699
  29769.262        1.58521
  29778.527        1.5826
  29788.087        1.5817
  29797.785        1.57956
  29807.200        1.57711
  29816.626        1.57516
  29826.521        1.57315
  29836.489        1.57082
  29846.336        1.5676
  29856.164        1.56503
  29866.044        1.56256
  29876.156        1.55998
  29886.392        1.55851
  29896.645        1.55623
  29906.685        1.55487
  29917.157        1.55223
  29927.816        1.55002
  29938.082        1.54814
  29948.653        1.54576
  29959.816        1.54423
  29970.284        1.54234
  29981.068        1.54018
  29992.220        1.53908
  30003.056        1.53716
  30013.807        1.53567
  30025.287        1.53335
  30036.255        1.53247
  30047.432        1.53033
  30059.181        1.52881
  30070.526        1.52643
  30082.101        1.52349
  30093.940        1.5228
  30105.388        1.52037
  30117.364        1.51815
  30129.153        1.51651
  30141.262        1.51378
  30153.007        1.51111
  30165.297        1.50922
  30177.149        1.50665
  30183.323        1.50477

File: SnI2_311.xdi
# XDI/1.0 Demeter/0.9.26
# Beamline.name: BM08-LISA
# Column.1: energy eV
# Column.2: mutrans
# Column.3: murefer
# Element.edge: K
# Element.symbol: Sn
# Facility.name: ESRF
# Facility.xray_source: Bending magnet
# Mono.d_spacing: 1.637039
# Mono.name: Si(311)
# Mono.notes: LNT cooled
# Sample.formula: SnI2
# Sample.name: Tin(II) iodide, stannous iodide
# Sample.reference: Sn metal foil
# Scan.start_time: 2023-09-30T18:16:17
# ///
# room temperature
#------------------------
#  energy  mutrans  murefer
  28853.941      -0.0434942   0.078829
  28863.221      -0.0449018   0.078579
  28872.864      -0.0455506   0.0783816
  28883.152      -0.0461389   0.0783226
  28893.095      -0.0462905   0.0779144
  28902.743      -0.0462956   0.0778449
  28912.924      -0.0477168   0.0773044
  28922.806      -0.0479536   0.077114
  28932.446      -0.0484049   0.0768393
  28942.500      -0.0490242   0.076481
  28952.560      -0.0495759   0.0760638
  28962.321      -0.0500003   0.0759332
  28972.094      -0.050763   0.075985
  28982.256      -0.0511768   0.0756546
  28992.023      -0.0514043   0.075587
  29001.796      -0.0520747   0.0760659
  29011.918      -0.0548278   0.0763083
  29021.815      -0.0526692   0.076611
  29031.652      -0.0543074   0.0773427
  29041.433      -0.0544237   0.0775996
  29051.298      -0.0547638   0.0781302
  29061.329      -0.0554629   0.0788771
  29071.145      -0.0545941   0.0790371
  29080.841      -0.0543541   0.0801125
  29090.975      -0.0540737   0.0811917
  29100.903      -0.0534974   0.0828649
  29110.499      -0.0533067   0.0847787
  29120.517      -0.0519449   0.0879497
  29130.737      -0.0499871   0.0919153
  29140.275      -0.0473209   0.097622
  29150.169      -0.0416738   0.105378
  29160.395      -0.0340385   0.118437
  29170.346      -0.0205218   0.141392
  29180.246       0.00996874   0.191444
  29185.992       0.0457384   0.252644
  29187.024       0.05719   0.271429
  29187.904       0.0674586   0.290059
  29188.829       0.0787961   0.311452
  29189.973       0.0951118   0.340937
  29191.005       0.111707       0.371079
  29192.207       0.135863       0.416061
  29193.127       0.160868       0.462835
  29194.150       0.195733       0.530204
  29194.977       0.231994       0.601523
  29195.990       0.285237       0.707052
  29196.925       0.342674       0.823046
  29197.928       0.412649       0.96462
  29199.156       0.512958        1.16827
  29200.130       0.608373        1.35732
  29201.172       0.725313        1.58724
  29202.020       0.820533        1.76827
  29203.018       0.91224        1.93263
  29203.900       0.963493        2.01509
  29204.841       0.989057        2.04746
  29206.020       0.993203        2.03128
  29207.048       0.984512        1.98839
  29208.188       0.967621        1.92429
  29209.090       0.950645        1.87118
  29210.104       0.928836        1.82085
  29210.961       0.909169        1.78742
  29212.044       0.886319        1.75997
  29213.033       0.867896        1.74324
  29214.086       0.851843        1.73099
  29215.305       0.835758        1.72135
  29216.271       0.825262        1.71639
  29217.339       0.815666        1.7118
  29218.216       0.808607        1.71094
  29219.270       0.803399        1.71316
  29220.221       0.800497        1.7173
  29221.231       0.798801        1.72326
  29222.465       0.797827        1.72942
  29223.470       0.797229        1.73381
  29224.548       0.797252        1.73893
  29225.407       0.796488        1.74015
  29226.402       0.794572        1.73916
  29227.276       0.793045        1.736
  29228.213       0.790719        1.73276
  29229.389       0.786757        1.725
  29230.423       0.782621        1.71724
  29232.010       0.775135        1.70024
  29234.173       0.765293        1.67611
  29236.321       0.760198        1.66802
  29239.031       0.760361        1.68034
  29241.268       0.76534        1.70542
  29243.686       0.7747        1.73211
  29246.652       0.785637        1.75622
  29249.247       0.796762        1.77673
  29252.062       0.806679        1.78539
  29255.128       0.812411        1.77292
  29257.890       0.814416        1.74805
  29260.932       0.814287        1.72214
  29263.946       0.813326        1.70125
  29266.852       0.810624        1.69145
  29270.375       0.806837        1.69536
  29273.494       0.803069        1.7073
  29277.004       0.799433        1.72382
  29280.506       0.796264        1.74545
  29284.219       0.794048        1.7662
  29287.928       0.790547        1.76834
  29291.417       0.788462        1.75672
  29295.310       0.786808        1.73922
  29299.056       0.787814        1.72581
  29303.156       0.788064        1.7185
  29306.983       0.790142        1.71833
  29311.311       0.79295        1.72279
  29315.415       0.795761        1.73072
  29319.727       0.797117        1.73929
  29323.961       0.798121        1.74476
  29328.191       0.796892        1.74601
  29332.732       0.795168        1.74724
  29337.098       0.793955        1.74471
  29341.976       0.793279        1.73942
  29346.650       0.793046        1.73475
  29351.433       0.792958        1.73284
  29356.281       0.793533        1.73168
  29361.068       0.79359        1.73078
  29366.166       0.794554        1.73298
  29371.306       0.792118        1.73412
  29376.506       0.789454        1.73499
  29382.039       0.786481        1.73454
  29387.258       0.783546        1.73327
  29392.425       0.781249        1.72954
  29397.994       0.779592        1.72412
  29403.712       0.778306        1.72015
  29409.409       0.777795        1.71576
  29415.221       0.777153        1.71448
  29421.100       0.777826        1.71306
  29426.927       0.778253        1.71259
  29432.642       0.778202        1.71322
  29438.701       0.777466        1.71391
  29445.100       0.776119        1.71254
  29451.085       0.774269        1.70869
  29456.983       0.771835        1.70496
  29463.266       0.768633        1.69978
  29469.824       0.766121        1.69552
  29476.415       0.763525        1.69223
  29482.934       0.762472        1.68773
  29489.427       0.760489        1.68519
  29496.032       0.76052        1.68395
  29502.833       0.760108        1.68321
  29509.812       0.76029        1.68235
  29516.700       0.759313        1.6816
  29523.701       0.757805        1.67953
  29530.764       0.756236        1.67623
  29538.056       0.753175        1.67234
  29545.176       0.750433        1.66814
  29552.135       0.747464        1.66369
  29559.378       0.745133        1.65961
  29566.938       0.743465        1.65679
  29574.467       0.74297        1.65495
  29581.871       0.742779        1.65362
  29589.478       0.742385        1.65235
  29597.244       0.741874        1.65062
  29605.179       0.74089        1.64897
  29612.939       0.739264        1.64702
  29620.838       0.737941        1.6436
  29628.886       0.735823        1.64152
  29636.959       0.733401        1.63717
  29645.047       0.730002        1.63541
  29653.315       0.727268        1.63189
  29661.723       0.725252        1.62804
  29670.166       0.723622        1.6266
  29678.594       0.722186        1.62432
  29687.148       0.720644        1.62298
  29695.878       0.719974        1.62149
  29704.931       0.722763        1.6209
  29713.717       0.71911        1.61731
  29722.836       0.718119        1.61535
  29732.158       0.717319        1.61318
  29741.066       0.715365        1.61115
  29750.192       0.712763        1.60815
  29759.360       0.710668        1.6055
  29768.887       0.70796        1.60273
  29778.122       0.705811        1.60107
  29787.691       0.704608        1.59932
  29797.445       0.70287        1.59748
  29806.860       0.702292        1.59561
  29816.245       0.701765        1.59381
  29826.079       0.700959        1.59185
  29836.021       0.699973        1.58916
  29845.949       0.700162        1.58666
  29855.818       0.697653        1.5835
  29865.677       0.695583        1.58142
  29875.702       0.693437        1.57873
  29885.948       0.69121        1.57691
  29896.231       0.688933        1.57456
  29906.210       0.68801        1.573
  29916.600       0.68615        1.57107
  29927.345       0.684688        1.5689
  29937.631       0.683158        1.56679
  29948.130       0.682055        1.56501
  29959.283       0.681258        1.56299
  29969.817       0.67929        1.56195
  29980.529       0.67803        1.55973
  29991.659       0.676553        1.55716
  30002.577       0.675215        1.5548
  30013.271       0.673054        1.55362
  30024.741       0.671527        1.55128
  30035.780       0.669335        1.54858
  30046.875       0.667908        1.54657
  30058.665       0.665535        1.54513
  30070.040       0.665382        1.54357
  30081.501       0.662344        1.54047
  30093.474       0.661253        1.53896
  30104.870       0.659539        1.53629
  30116.861       0.658444        1.5332
  30128.665       0.657036        1.53181
  30140.712       0.655291        1.53012
  30152.539       0.653191        1.52745
  30164.719       0.651471        1.52462
  30176.712       0.649984        1.52205
  30182.839       0.649157        1.52126

File: SnI2_311_100K.xdi
# XDI/1.0 Demeter/0.9.26
# Beamline.name: BM08-LISA
# Column.1: energy eV
# Column.2: mutrans
# Column.3: murefer
# Element.edge: K
# Element.symbol: Sn
# Facility.name: ESRF
# Facility.xray_source: Bending magnet
# Mono.d_spacing: 1.637039
# Mono.name: Si(311)
# Mono.notes: LNT cooled
# Sample.formula: SnI2
# Sample.name: Tin(II) iodide, stannous iodide
# Sample.reference: Sn metal foil
# Sample.temperature: 100 K
# Scan.start_time: 2023-09-28T18:18:06
# ///
#------------------------
#  energy  mutrans  murefer
  28854.179      -0.136309       0.0682694
  28863.197      -0.136967       0.0675051
  28872.740      -0.137615       0.0671563
  28882.942      -0.138439       0.0668573
  28892.875      -0.138944       0.0666611
  28902.476      -0.139514       0.0665838
  28912.590      -0.140447       0.0660215
  28922.505      -0.140972       0.0659148
  28932.155      -0.141531       0.065653
  28942.155      -0.142398       0.0656002
  28952.225      -0.14306       0.065578
  28962.019      -0.143738       0.0651951
  28971.791      -0.144383       0.0649561
  28981.930      -0.144836       0.0651147
  28991.749      -0.145389       0.0650658
  29001.556      -0.146071       0.0655709
  29011.644      -0.146451       0.0659673
  29021.546      -0.147189       0.0663216
  29031.402      -0.147868       0.0668537
  29041.159      -0.148129       0.0678374
  29050.980      -0.148763       0.0684026
  29061.030      -0.148693       0.0693032
  29070.826      -0.149271       0.0697282
  29080.450      -0.1493       0.0701842
  29090.583      -0.149437       0.0708436
  29100.564      -0.149271       0.0725339
  29110.136      -0.148972       0.0745714
  29120.106      -0.148327       0.0777227
  29130.349      -0.147198       0.0812966
  29139.902      -0.145505       0.0861596
  29149.727      -0.142311       0.0938248
  29159.929      -0.137121       0.106149
  29169.928      -0.12803       0.127295
  29179.828      -0.108158       0.173127
  29185.593      -0.0852432   0.227311
  29186.654      -0.0781069   0.244156
  29187.530      -0.0715891   0.260648
  29188.440      -0.0636657   0.279553
  29189.569      -0.0536202   0.304892
  29190.601      -0.0430692   0.330691
  29191.803      -0.0286142   0.367428
  29192.738      -0.0140126   0.404736
  29193.770       0.00708914   0.459115
  29194.602       0.0285075   0.516471
  29195.586       0.0602668   0.600097
  29196.492       0.0946734   0.692398
  29197.436       0.137054       0.804374
  29198.639       0.200803       0.96831
  29199.633       0.268336        1.13241
  29200.714       0.36403        1.34628
  29201.591       0.45721        1.53514
  29202.585       0.568542        1.73559
  29203.442       0.650431        1.86584
  29204.358       0.709259        1.94812
  29205.508       0.74236        1.98122
  29206.546       0.746501        1.966
  29207.725       0.735959        1.91749
  29208.661       0.721907        1.867
  29209.689       0.703026        1.80939
  29210.537       0.684677        1.76854
  29211.585       0.662056        1.73252
  29212.531       0.642091        1.71056
  29213.555       0.623223        1.69487
  29214.784       0.603349        1.68087
  29215.778       0.588713        1.67372
  29216.875       0.574332        1.6678
  29217.753       0.564442        1.66507
  29218.782       0.555703        1.66437
  29219.694       0.549915        1.66648
  29220.660       0.545792        1.67067
  29221.879       0.542212        1.67763
  29222.904       0.540252        1.68326
  29224.016       0.538809        1.68862
  29224.894       0.537774        1.69202
  29225.885       0.537102        1.69365
  29226.739       0.536078        1.69308
  29227.637       0.534769        1.69111
  29228.754       0.532438        1.68644
  29229.784       0.529653        1.68044
  29231.429       0.524464        1.66618
  29233.621       0.516575        1.64195
  29235.696       0.510093        1.62675
  29238.406       0.503881        1.63119
  29240.721       0.502589        1.65193
  29243.080       0.507824        1.67786
  29246.002       0.519152        1.70282
  29248.685       0.530376        1.72484
  29251.407       0.540272        1.73761
  29254.492       0.547827        1.73184
  29257.289       0.554947        1.71054
  29260.189       0.563015        1.68469
  29263.295       0.569826        1.66305
  29266.152       0.571362        1.64927
  29269.597       0.5659        1.64858
  29272.789       0.558238        1.65842
  29276.128       0.550193        1.67299
  29279.766       0.540935        1.69358
  29283.298       0.532565        1.71478
  29287.124       0.526527        1.72336
  29290.486       0.524283        1.71544
  29294.456       0.524742        1.69907
  29298.109       0.528028        1.68413
  29302.268       0.531617        1.67516
  29305.967       0.535606        1.67299
  29310.354       0.541329        1.67646
  29314.291       0.545899        1.68315
  29318.730       0.547278        1.69173
  29322.713       0.545214        1.69814
  29327.115       0.541734        1.70119
  29331.400       0.538261        1.70089
  29335.918       0.536325        1.69959
  29340.697       0.535669        1.69469
  29345.252       0.536717        1.69085
  29350.183       0.538312        1.68722
  29354.726       0.540212        1.68549
  29359.650       0.541891        1.68442
  29364.713       0.542874        1.68496
  29369.576       0.541461        1.68606
  29374.978       0.538102        1.68758
  29380.397       0.534081        1.68899
  29385.314       0.529502        1.68699
  29390.678       0.525409        1.68431
  29396.147       0.522657        1.68014
  29401.539       0.521884        1.6761
  29407.329       0.522734        1.67112
  29413.244       0.524063        1.66821
  29418.835       0.526392        1.66696
  29424.419       0.527563        1.66635
  29430.361       0.527968        1.66682
  29436.439       0.527427        1.66788
  29442.549       0.525558        1.6674
  29448.246       0.523046        1.66527
  29454.341       0.519841        1.66211
  29460.771       0.5163        1.65777
  29467.199       0.513105        1.6528
  29473.476       0.510697        1.64921
  29479.836       0.508646        1.64471
  29486.466       0.507881        1.6422
  29493.238       0.507887        1.64011
  29500.093       0.508646        1.64015
  29506.967       0.509668        1.63975
  29513.619       0.51001        1.63965
  29520.439       0.509162        1.63769
  29527.451       0.507313        1.63604
  29534.796       0.503818        1.63204
  29542.024       0.50021        1.6285
  29549.152       0.496499        1.62361
  29556.467       0.493363        1.62012
  29564.016       0.491461        1.61685
  29571.494       0.490901        1.61397
  29578.796       0.491408        1.61282
  29586.291       0.491601        1.61189
  29593.926       0.492092        1.61041
  29601.749       0.492034        1.60956
  29609.367       0.49141        1.60811
  29617.153       0.490447        1.60587
  29625.135       0.488382        1.60238
  29633.140       0.485939        1.59917
  29641.166       0.482331        1.59672
  29649.431       0.478848        1.59398
  29657.863       0.475794        1.59004
  29666.289       0.473552        1.58815
  29674.704       0.471941        1.58583
  29683.225       0.470664        1.58452
  29691.893       0.47024        1.58332
  29700.797       0.470455        1.5815
  29709.439       0.471129        1.57996
  29718.334       0.4718        1.57723
  29727.506       0.471469        1.57541
  29736.417       0.470468        1.57325
  29745.661       0.468122        1.57022
  29754.968       0.465022        1.56833
  29764.558       0.461804        1.56607
  29773.668       0.458594        1.56357
  29782.967       0.455851        1.56223
  29792.585       0.45411        1.56041
  29802.124       0.453526        1.55893
  29811.714       0.453664        1.55728
  29821.596       0.454078        1.55515
  29831.245       0.454388        1.55293
  29840.925       0.454614        1.55121
  29850.908       0.453701        1.54961
  29861.096       0.451874        1.54638
  29871.025       0.449466        1.5447
  29880.957       0.447091        1.54235
  29891.349       0.444844        1.54014
  29901.682       0.443622        1.54269
  29912.038       0.440351        1.53596
  29922.437       0.438652        1.53435
  29932.909       0.437731        1.53228
  29943.697       0.437132        1.53084
  29954.462       0.436486        1.52842
  29964.967       0.435403        1.52676
  29976.014       0.434857        1.52523
  29986.710       0.434276        1.52402
  29997.387       0.43231        1.52128
  30008.412       0.430798        1.51933
  30019.507       0.428924        1.51784
  30030.393       0.426597        1.51602
  30041.814       0.424429        1.51396
  30053.089       0.422102        1.51214
  30064.568       0.420399        1.50984
  30076.103       0.419378        1.50827
  30087.693       0.418538        1.50758
  30099.469       0.417828        1.50508
  30111.087       0.417477        1.50452
  30123.255       0.416205        1.50133
  30135.110       0.414942        1.50004
  30146.876       0.413372        1.49781
  30159.171       0.411382        1.49585
  30170.857       0.409568        1.49384
  30177.107       0.408479        1.49285