Folder: XAS_database/root/data (part 7)

File: SnS_111.xdi
# XDI/1.0 Demeter/0.9.26
# Beamline.name: BM08-LISA
# Column.1: energy eV
# Column.2: mutrans
# Column.3: murefer
# Element.edge: K
# Element.symbol: Sn
# Facility.name: ESRF
# Facility.xray_source: Bending magnet
# Mono.d_spacing: 3.134692
# Mono.name: Si(111)
# Mono.notes: LNT cooled
# Sample.formula: SnS
# Sample.name: Tin(II) sulfide
# Sample.reference: Sn metal foil
# Scan.start_time: 2023-09-22T12:30:43
# ///
# room temperature
#------------------------
#  energy  mutrans  murefer
  29000.717       0.414849       0.151685
  29008.875       0.414648       0.151893
  29018.353       0.414764       0.152049
  29028.393       0.414663       0.152725
  29037.977       0.414697       0.15304
  29048.115       0.414851       0.153698
  29058.120       0.41487       0.15433
  29067.575       0.414741       0.155282
  29077.547       0.415382       0.156395
  29087.499       0.41551       0.157666
  29097.186       0.416649       0.159687
  29107.506       0.416885       0.162116
  29117.692       0.418552       0.16546
  29127.251       0.420234       0.169339
  29137.320       0.422877       0.175176
  29147.434       0.426494       0.183578
  29157.275       0.433194       0.197737
  29167.337       0.4445       0.222534
  29177.847       0.471882       0.279026
  29182.814       0.505464       0.346321
  29183.695       0.513997       0.364714
  29184.801       0.52702       0.390149
  29185.692       0.538932       0.414602
  29186.639       0.553779       0.443925
  29187.886       0.575467       0.487275
  29188.898       0.597382       0.530808
  29190.155       0.630381       0.596076
  29191.112       0.662794       0.659238
  29192.068       0.705102       0.739384
  29193.231       0.768001       0.856637
  29194.094       0.829151       0.969437
  29194.948       0.902424        1.10256
  29196.018        1.00036        1.28521
  29196.843        1.07988        1.44123
  29197.669        1.15229        1.59951
  29198.767        1.22019        1.7688
  29199.640        1.24727        1.86411
  29200.550        1.25239        1.91773
  29201.779        1.23261        1.92779
  29202.755        1.20948        1.90781
  29203.779        1.18186        1.87383
  29205.083        1.14977        1.82741
  29206.060        1.12658        1.79335
  29207.046        1.11043        1.76378
  29208.229        1.09461        1.73768
  29209.121        1.08649        1.72321
  29210.013        1.07994        1.71248
  29211.084        1.0739        1.70483
  29211.929        1.06942        1.70054
  29212.812        1.0659        1.698
  29213.911        1.06358        1.69708
  29214.822        1.06061        1.69771
  29215.780        1.05795        1.69966
  29217.020        1.05588        1.70338
  29218.044        1.05239        1.70735
  29219.078        1.05319        1.71096
  29220.403        1.05152        1.71427
  29221.390        1.05036        1.71538
  29222.367        1.05043        1.71503
  29223.552        1.04885        1.71229
  29224.445        1.04856        1.70839
  29225.310        1.04674        1.70267
  29226.400        1.04489        1.69418
  29227.237        1.04455        1.68641
  29228.628        1.04301        1.67409
  29231.026        1.04356        1.66148
  29233.312        1.04907        1.66397
  29235.965        1.05889        1.68019
  29238.392        1.06941        1.70198
  29240.886        1.07798        1.72522
  29243.032        1.0808        1.74171
  29245.583        1.08231        1.75405
  29248.737        1.08065        1.75215
  29251.580        1.08023        1.73784
  29254.519        1.0807        1.71472
  29257.204        1.07635        1.6926
  29259.993        1.07035        1.67791
  29263.065        1.06526        1.67432
  29266.666        1.05942        1.68058
  29269.910        1.0535        1.69288
  29272.937        1.05058        1.70788
  29276.134        1.04957        1.72434
  29280.059        1.05308        1.73866
  29283.834        1.05931        1.74105
  29287.233        1.07043        1.73048
  29290.660        1.07892        1.71591
  29294.872        1.08497        1.70367
  29298.897        1.08489        1.69813
  29302.488        1.08147        1.69804
  29306.448        1.07496        1.70259
  29310.608        1.0702        1.70902
  29314.845        1.06539        1.71697
  29318.667        1.0633        1.72167
  29323.133        1.06237        1.72397
  29327.686        1.06219        1.72295
  29331.994        1.06271        1.71971
  29336.285        1.06423        1.71616
  29341.495        1.06669        1.71262
  29346.016        1.06931        1.71018
  29350.500        1.07036        1.70865
  29355.583        1.06999        1.70888
  29360.725        1.07168        1.70941
  29365.366        1.06979        1.71059
  29370.302        1.07075        1.71175
  29375.801        1.06842        1.71198
  29380.484        1.06635        1.71111
  29385.825        1.06406        1.70847
  29391.319        1.06197        1.70477
  29396.407        1.06049        1.70067
  29402.610        1.05898        1.69733
  29407.978        1.05937        1.69498
  29413.490        1.05897        1.69356
  29419.614        1.05939        1.69278
  29425.150        1.05961        1.69325
  29430.898        1.05942        1.69351
  29436.992        1.05955        1.69319
  29442.553        1.05889        1.69093
  29448.995        1.05871        1.68841
  29455.048        1.05685        1.68493
  29461.525        1.0555        1.6808
  29468.051        1.05144        1.67691
  29474.017        1.05124        1.6738
  29480.740        1.05048        1.67183
  29486.835        1.04835        1.67031
  29493.641        1.04886        1.6693
  29500.010        1.04732        1.66871
  29506.841        1.04614        1.668
  29514.002        1.04578        1.66638
  29520.398        1.04594        1.66462
  29528.189        1.04551        1.66171
  29534.755        1.04386        1.65868
  29542.409        1.04274        1.65501
  29549.068        1.04156        1.65219
  29556.634        1.0406        1.64926
  29563.414        1.03921        1.6468
  29571.363        1.03848        1.64486
  29578.343        1.03709        1.6436
  29586.367        1.03521        1.64245
  29593.990        1.03371        1.64092
  29601.926        1.0338        1.63939
  29609.384        1.03324        1.63682
  29617.502        1.03303        1.63486
  29624.977        1.03176        1.6324
  29633.596        1.0301        1.63
  29641.186        1.03009        1.62739
  29650.047        1.02929        1.62461
  29658.188        1.02806        1.62235
  29666.817        1.02699        1.62055
  29674.908        1.0263        1.61889
  29683.509        1.0244        1.61749
  29692.230        1.02368        1.61604
  29700.947        1.02348        1.61394
  29709.980        1.02151        1.61182
  29718.659        1.01961        1.61001
  29728.024        1.02098        1.60771
  29736.373        1.01992        1.60616
  29745.925        1.01866        1.60389
  29754.780        1.01705        1.60198
  29764.110        1.01735        1.59999
  29774.333        1.01699        1.59819
  29783.254        1.01625        1.59657
  29792.856        1.01373        1.59496
  29802.316        1.01403        1.59361
  29811.685        1.01327        1.59207
  29822.166        1.01143        1.59025
  29831.685        1.01118        1.58851
  29841.857        1.00979        1.58648
  29852.104        1.00868        1.58441
  29861.494        1.00868        1.58237
  29871.706        1.00738        1.58042
  29882.180        1.00664        1.57857
  29892.259        1.00592        1.57662
  29903.062        1.00489        1.57476
  29913.470        1.00433        1.57336
  29923.303        1.00287        1.57181
  29934.248        1.00244        1.56978
  29945.072        1.00121        1.56808
  29955.618        1.00068        1.56608
  29966.823       0.999707        1.56374
  29978.116       0.997314        1.56202
  29988.705       0.997327        1.56091
  29999.817       0.997364        1.55909
  30011.353       0.996213        1.55748
  30022.481       0.995422        1.55538
  30033.776       0.994191        1.55406
  30045.388       0.993794        1.55247
  30056.800       0.992907        1.55079
  30067.773       0.991575        1.54896
  30079.750       0.989079        1.54662
  30091.737       0.990109        1.54493
  30103.533       0.988697        1.54321
  30114.820       0.98757        1.54116
  30127.015       0.986865        1.53924
  30139.309       0.985896        1.53767
  30151.683       0.984847        1.53532
  30163.567       0.983975        1.53353
  30170.049       0.983053        1.53299

File: Ta2O5_311.xdi
# XDI/1.0 Demeter/0.9.26
# Beamline.name: BM08-GILDA
# Column.1: energy eV
# Column.2: mutrans
# Column.3: murefer
# Element.edge: L3
# Element.symbol: Ta
# Facility.name: ESRF
# Facility.xray_source: Bending magnet
# Mono.d_spacing: 1.63751
# Mono.name: Si(311)
# Mono.notes: water cooled
# Sample.formula: Ta2O5
# Sample.name: Tantalum(V) oxide
# Sample.reference: Ta metal foil
# Scan.start_time: 2016-07-11T11:52:00
# ///
# room temperature
#------------------------
#  energy  mutrans  murefer
  9681.72      -0.836606      -0.134232
  9711.85      -0.858254      -0.159536
  9742.1      -0.878807      -0.185961
  9772.56      -0.899453      -0.214373
  9803.23      -0.91924      -0.238632
  9834.12      -0.934703      -0.262493
  9855.05      -0.9318      -0.26511
  9861.31      -0.921809      -0.255969
  9862.18      -0.919777      -0.254244
  9863.05      -0.91716      -0.252031
  9863.91      -0.914333      -0.249198
  9864.78      -0.911145      -0.244896
  9865.65      -0.907112      -0.240271
  9866.52      -0.902915      -0.235601
  9867.4      -0.898081      -0.229606
  9868.27      -0.892291      -0.22301
  9869.13      -0.885996      -0.214578
  9870.05      -0.878297      -0.204673
  9870.97      -0.868818      -0.191402
  9871.85      -0.858365      -0.176903
  9872.75      -0.845854      -0.158218
  9873.62      -0.829462      -0.132965
  9874.49      -0.810747      -0.101622
  9875.34      -0.789961      -0.0653458
  9876.27      -0.760963      -0.0102231
  9877.15      -0.725208       0.0642446
  9878.02      -0.681423       0.163933
  9878.87      -0.626587       0.301458
  9879.78      -0.548594       0.510751
  9880.72      -0.43912       0.80429
  9881.59      -0.287915        1.17086
  9882.47      -0.0684582    1.60926
  9883.34       0.199596        2.02581
  9884.21       0.549514        2.41622
  9885.08       0.933629        2.65356
  9885.96        1.24612        2.60988
  9886.84        1.41032        2.35779
  9887.71        1.46291        2.04646
  9888.58        1.43836        1.79217
  9889.46        1.34783        1.58318
  9890.33        1.17009        1.42176
  9891.2       0.945562        1.31949
  9892.08       0.71176        1.25264
  9892.96       0.485366        1.19961
  9893.88       0.290588        1.15501
  9894.75       0.15394        1.11723
  9895.63       0.0555802    1.07967
  9896.51      -0.0151825    1.039
  9897.42      -0.0621254   0.999356
  9898.29      -0.0956954   0.96167
  9899.17      -0.121953       0.9269
  9900.05      -0.140722       0.901169
  9900.93      -0.156023       0.879724
  9901.8      -0.16849       0.860456
  9902.68      -0.17836       0.842324
  9903.56      -0.186324       0.824828
  9904.44      -0.193651       0.808234
  9905.36      -0.199624       0.795601
  9906.23      -0.204147       0.786344
  9907.11      -0.208529       0.78001
  9907.99      -0.212853       0.776347
  9908.87      -0.21756       0.773116
  9909.76      -0.223451       0.768418
  9910.67      -0.229887       0.762214
  9913.03      -0.24815       0.748169
  9916.07      -0.255285       0.744326
  9919.09      -0.230458       0.737595
  9922.11      -0.202206       0.710735
  9925.15      -0.169699       0.689396
  9928.23      -0.135361       0.698084
  9931.26      -0.104642       0.718511
  9934.29      -0.0807471   0.733929
  9937.32      -0.0733051   0.734487
  9940.35      -0.0799633   0.725747
  9943.38      -0.0953485   0.717303
  9946.46      -0.116274       0.711322
  9949.54      -0.138617       0.711039
  9952.61      -0.156551       0.718105
  9955.71      -0.169323       0.725181
  9958.75      -0.177562       0.725173
  9961.81      -0.181896       0.712455
  9964.86      -0.185658       0.695207
  9967.93      -0.191136       0.682369
  9971      -0.197464       0.678338
  9974.08      -0.202426       0.680897
  9977.14      -0.204333       0.680851
  9980.2      -0.203206       0.680025
  9987.07      -0.196813       0.682807
  9993.13      -0.189604       0.689817
  9999.18      -0.186963       0.696816
  10005.230      -0.184648       0.698812
  10011.281      -0.184555       0.687238
  10017.308      -0.188341       0.65968
  10023.351      -0.19894       0.640826
  10029.423      -0.208349       0.633981
  10035.505      -0.217789       0.631834
  10041.570      -0.226566       0.629521
  10047.645      -0.235319       0.628729
  10053.770      -0.245088       0.636061
  10059.904      -0.251455       0.657284
  10066.089      -0.26069       0.665894
  10072.239      -0.262546       0.637363
  10078.397      -0.265712       0.594997
  10084.520      -0.259136       0.570411
  10090.695      -0.272497       0.581841
  10096.878      -0.274595       0.578601
  10103.025      -0.278254       0.581152
  10109.180      -0.283924       0.584218
  10115.346      -0.289033       0.581301
  10121.585      -0.295048       0.581986
  10127.804      -0.296774       0.580578
  10134.015      -0.303783       0.581863
  10140.214      -0.307824       0.569876
  10146.415      -0.315469       0.553252
  10152.628      -0.322325       0.539566
  10158.893      -0.329621       0.528235
  10165.122      -0.336102       0.523449
  10171.347      -0.340748       0.521523
  10177.605      -0.345636       0.522983
  10183.860      -0.349701       0.524171
  10190.122      -0.353569       0.522756
  10196.393      -0.356606       0.51801
  10202.672      -0.362074       0.511037
  10208.959      -0.3671       0.502583
  10215.255      -0.370583       0.492302
  10221.559      -0.375666       0.484074
  10227.871      -0.380188       0.474208
  10234.254      -0.384394       0.467308
  10240.612      -0.387869       0.46225
  10246.949      -0.392513       0.459089
  10253.299      -0.396157       0.455485
  10259.651      -0.399129       0.449615
  10266.014      -0.40495       0.447556
  10272.386      -0.409333       0.442838
  10278.767      -0.413736       0.438939
  10289.011      -0.421606       0.43097
  10301.007      -0.429283       0.416169
  10313.029      -0.434879       0.40171
  10325.134      -0.439947       0.389334
  10337.220      -0.446206       0.379776
  10349.337      -0.453038       0.372952
  10361.484      -0.463282       0.363038
  10373.662      -0.468596       0.354921
  10385.871      -0.470624       0.344793
  10398.105      -0.479029       0.333555
  10410.382      -0.482453       0.323266
  10422.685      -0.500758       0.286665
  10435.018      -0.498447       0.290099
  10447.384      -0.502201       0.282172
  10459.780      -0.503059       0.278214
  10472.209      -0.506494       0.268922
  10484.687      -0.512402       0.261249
  10497.256      -0.521006       0.247959
  10509.878      -0.524738       0.237113
  10522.432      -0.527429       0.225278
  10535.021      -0.532359       0.211748
  10547.642      -0.535827       0.19967
  10560.344      -0.542065       0.190021
  10573.079      -0.548718       0.181863
  10585.895      -0.554429       0.17437
  10598.696      -0.562025       0.164427
  10611.482      -0.56913       0.140879
  10624.350      -0.570189       0.142634
  10637.202      -0.577712       0.129397
  10650.088      -0.5862       0.116459
  10663.057      -0.595359       0.100769
  10676.010      -0.608277       0.0868187
  10689.016      -0.616459       0.0781384
  10702.076      -0.623874       0.0775306
  10715.122      -0.633305       0.0667108
  10728.211      -0.643352       0.0561549
  10741.384      -0.654502       0.0438075
  10754.592      -0.666047       0.033865
  10767.785      -0.676252       0.0202213
  10781.011      -0.686628       0.00953985
  10794.275      -0.698303      -0.00350939
  10807.572      -0.710667      -0.0135889
  10820.904      -0.72115      -0.0232284
  10834.272      -0.728737      -0.0326829
  10847.776      -0.7395      -0.0420849
  10852.252      -0.742365      -0.0467288

File: Ti_foil_111.xdi
# XDI/1.0 Demeter/0.9.26
# Beamline.name: BM08-LISA
# Column.1: energy eV
# Column.2: mutrans
# Element.edge: K
# Element.symbol: Ti
# Facility.name: ESRF
# Facility.xray_source: Bending magnet
# Mono.d_spacing: 3.134692
# Mono.name: Si(111)
# Mono.notes: LNT cooled
# Sample.formula: Ti
# Sample.name: Ti metal foil
# Scan.start_time: 2017-04-08T13:49:32
# ///
# room temperature
#------------------------
#   energy  mutrans
  4865.87      -0.899842
  4880.86      -0.91573
  4895.97      -0.931449
  4910.84      -0.946605
  4925.96      -0.961512
  4941.14      -0.975453
  4956.19      -0.984847
  4961.71      -0.979418
  4962.44      -0.976421
  4963.19      -0.971644
  4964.17      -0.959283
  4964.65      -0.946796
  4965.4      -0.900302
  4966.15      -0.741885
  4966.89      -0.490244
  4967.63      -0.489601
  4968.36      -0.585699
  4969.11      -0.596759
  4969.85      -0.546109
  4970.61      -0.48312
  4971.61      -0.431701
  4972.12      -0.417742
  4973.08      -0.368007
  4973.59      -0.320313
  4974.33      -0.234377
  4975.07      -0.147263
  4976.07      -0.0388353
  4976.57       0.0151243
  4977.56       0.120817
  4978.07       0.169277
  4978.81       0.229181
  4979.54       0.275404
  4980.29       0.311375
  4981.04       0.336694
  4981.79       0.354897
  4982.52       0.369374
  4983.26       0.383146
  4983.99       0.396001
  4984.73       0.404593
  4985.48       0.403739
  4986.23       0.391999
  4986.98       0.372924
  4987.71       0.353817
  4988.44       0.339146
  4989.17       0.330839
  4989.91       0.327401
  4990.9       0.324588
  4991.41       0.322794
  4992.15       0.319185
  4992.9       0.314247
  4993.89       0.307988
  4994.4       0.306368
  4995.15       0.30783
  4995.9       0.315132
  4996.66       0.329116
  4997.41       0.349175
  4998.17       0.374525
  4998.91       0.401112
  4999.92       0.430987
  5000.41       0.441912
  5001.16       0.452384
  5001.91       0.455859
  5002.9       0.453581
  5003.4       0.451749
  5004.16       0.448928
  5004.92       0.445808
  5005.94       0.438195
  5006.94       0.422594
  5008.96       0.367734
  5010.95       0.313832
  5012.94       0.284814
  5014.92       0.267752
  5016.9       0.250072
  5019.42       0.227309
  5021.45       0.212237
  5023.49       0.20134
  5025.99       0.199258
  5027.97       0.205845
  5030.46       0.220695
  5032.92       0.254243
  5035.4       0.302234
  5037.86       0.343627
  5040.37       0.365861
  5042.83       0.363993
  5045.33       0.347431
  5047.84       0.317488
  5050.37       0.277277
  5053.33       0.224293
  5055.8       0.188543
  5058.76       0.168333
  5061.73       0.164619
  5064.21       0.157636
  5067.21       0.141128
  5070.23       0.126556
  5073.22       0.118798
  5076.2       0.123446
  5079.69       0.147063
  5082.69       0.178856
  5085.73       0.215096
  5089.24       0.253611
  5092.26       0.269168
  5095.77       0.249521
  5099.3       0.195758
  5102.31       0.141582
  5105.83       0.0941652
  5109.34       0.0775394
  5112.85       0.0747463
  5116.41       0.0719962
  5120.48       0.0682107
  5123.98       0.0620316
  5127.45       0.0527771
  5131.37       0.0437337
  5134.85       0.041785
  5138.86       0.0483326
  5142.88       0.0614218
  5146.92       0.0775875
  5150.94       0.0868195
  5154.97       0.0787677
  5158.99       0.0578855
  5163.06       0.0354685
  5167.16       0.0190163
  5171.2       0.00275854
  5175.76      -0.021715
  5179.77      -0.0397674
  5184.28      -0.0510124
  5188.78      -0.0558094
  5192.79      -0.05876
  5197.3      -0.0603084
  5201.76      -0.0609303
  5206.25      -0.0589191
  5210.76      -0.056428
  5215.74      -0.058087
  5220.2      -0.0657108
  5224.66      -0.0746442
  5229.58      -0.082604
  5234.06      -0.0910262
  5239.08      -0.103906
  5244.07      -0.11821
  5248.6      -0.13112
  5253.59      -0.144572
  5258.54      -0.156279
  5263.57      -0.165175
  5268.59      -0.170754
  5274.03      -0.173944
  5278.96      -0.175962
  5283.94      -0.178666
  5289.4      -0.182906
  5294.44      -0.18978
  5299.9      -0.199094
  5305.32      -0.207357
  5310.78      -0.214708
  5316.29      -0.222626
  5321.77      -0.231079
  5327.25      -0.240259
  5332.77      -0.249669
  5338.31      -0.260145
  5343.83      -0.270861
  5349.85      -0.281381
  5355.39      -0.289055
  5361.41      -0.295383
  5367.48      -0.300044
  5373.04      -0.304175
  5379.04      -0.310304
  5384.96      -0.317866
  5390.94      -0.325892
  5396.96      -0.334042
  5403.52      -0.342624
  5409.55      -0.350789
  5415.58      -0.359251
  5422.22      -0.368445
  5428.32      -0.377164
  5434.87      -0.386472
  5441.41      -0.395108
  5447.42      -0.402746
  5453.91      -0.410482
  5460.43      -0.417657
  5466.91      -0.424752
  5473.43      -0.431996
  5480.42      -0.439752
  5486.86      -0.446878
  5493.28      -0.454423
  5500.23      -0.462432
  5506.73      -0.469771
  5513.74      -0.477723
  5520.71      -0.485787
  5527.7      -0.493959
  5534.78      -0.502409
  5541.77      -0.510654
  5548.62      -0.518423
  5555.61      -0.526126
  5562.58      -0.533527
  5569.58      -0.541107
  5576.99      -0.549165
  5583.93      -0.556561
  5591.45      -0.564359
  5598.89      -0.572145
  5605.87      -0.579406
  5613.45      -0.587351
  5621.01      -0.595533
  5628.5      -0.603657
  5636.03      -0.611843
  5644.05      -0.620644
  5651.65      -0.628776
  5659.16      -0.636952
  5667.09      -0.645011
  5674.58      -0.65264
  5682.66      -0.660983
  5690.68      -0.669229
  5698.18      -0.67692
  5706.32      -0.685096
  5714.46      -0.693233
  5722.53      -0.701302
  5730.61      -0.709252
  5739.15      -0.717795
  5747.13      -0.725695
  5755.1      -0.733706
  5763.6      -0.742088
  5771.64      -0.750018
  5780.07      -0.758332
  5788.49      -0.766495
  5796.94      -0.77462
  5805.45      -0.782707
  5813.9      -0.790752
  5822.35      -0.798758
  5830.93      -0.8068
  5839.45      -0.81468
  5847.83      -0.822389
  5856.81      -0.830634
  5865.26      -0.838488
  5874.24      -0.846613
  5883.08      -0.85479
  5891.57      -0.862534
  5900.49      -0.87059
  5909.44      -0.878565
  5918.48      -0.88672
  5927.52      -0.894635
  5937.09      -0.903083
  5946.09      -0.910938
  5955.13      -0.918826
  5964.75      -0.92716
  5973.73      -0.934884
  5983.17      -0.942881
  5992.67      -0.95092
  6001.76      -0.958649
  6011.25      -0.9665
  6020.8      -0.97439
  6030.49      -0.982531
  6040.09      -0.990321
  6050.18      -0.998725
  6059.8       -1.00667
  6069.27       -1.01425
  6079.26       -1.02241
  6088.76       -1.03009
  6098.81       -1.03807
  6108.73       -1.04595
  6118.63       -1.0537
  6128.58       -1.06151
  6138.66       -1.06939
  6148.6       -1.0771
  6158.55       -1.08484
  6168.65       -1.09256
  6178.66       -1.10024
  6189.02       -1.10809
  6199.07       -1.11581
  6209.51       -1.12354
  6219.91       -1.13131
  6229.78       -1.13862
  6240.29       -1.14636
  6250.69       -1.15387
  6261.13       -1.16149
  6271.73       -1.16921
  6282.8       -1.17713
  6293.34       -1.18475
  6303.81       -1.19201
  6314.96       -1.19998
  6325.44       -1.20736
  6336.35       -1.21499
  6346.85       -1.22222
  6357.91       -1.22979
  6368.93       -1.23731
  6380       -1.24489
  6391.2       -1.25247
  6402.28       -1.25995
  6413.91       -1.26773
  6425.03       -1.27504
  6436.05       -1.28228
  6447.49       -1.28987
  6458.49       -1.29691
  6470.02       -1.30452
  6481.45       -1.31179
  6492.82       -1.31902