Folder: XAS_database/root/data

Note: README.md
# XAS_database
A Database of model compunds measured at BM08-LISA beamline in ESRF

File: Cu2O_111.xdi
# XDI/1.0 Demeter/0.9.26
# Beamline.name: BM08-LISA
# Column.1: energy eV
# Column.2: mutrans
# Column.3: murefer
# Element.edge: K
# Element.symbol: Cu
# Facility.name: ESRF
# Facility.xray_source: Bending magnet
# Mono.d_spacing: 3.134692
# Mono.name: Si(111)
# Mono.notes: LNT cooled
# Sample.formula: Cu2O
# Sample.name: Copper(I) oxide, Cuprous oxide
# Sample.reference: Cu metal foil
# Scan.start_time: 2023-01-17T17:51:02
# ///
# room temperature
#------------------------
#  energy  mutrans  murefer
  8829.62       0.466238       0.573906
  8849.4       0.458       0.568298
  8869.16       0.449821       0.562649
  8889.05       0.441757       0.556883
  8909.15       0.433808       0.551095
  8929.04       0.426318       0.54508
  8948.94       0.419915       0.540214
  8959.42       0.417907       0.539386
  8960.38       0.417839       0.539449
  8961.43       0.417781       0.539856
  8962.46       0.417783       0.540198
  8963.4       0.417845       0.54043
  8964.36       0.417962       0.540978
  8965.41       0.418157       0.541612
  8966.42       0.418458       0.542257
  8967.39       0.418852       0.543317
  8968.43       0.419427       0.544666
  8969.44       0.420301       0.547167
  8970.4       0.421059       0.54938
  8971.39       0.422228       0.552065
  8972.43       0.424037       0.556653
  8973.49       0.426649       0.56375
  8974.44       0.43036       0.574136
  8975.43       0.436012       0.590743
  8976.46       0.445237       0.623094
  8977.48       0.461418       0.701434
  8978.5       0.497039       0.920552
  8979.51       0.586249        1.18956
  8980.54       0.763686        1.30287
  8981.52       0.842772        1.31373
  8982.51       0.782729        1.29411
  8983.57       0.7556        1.32351
  8984.62       0.783296        1.39119
  8985.62       0.828577        1.4545
  8986.61       0.872525        1.52579
  8987.65       0.922315        1.62363
  8988.68       0.973269        1.7514
  8989.67        1.03043        1.89829
  8990.68        1.10045        2.03782
  8991.7        1.17513        2.15199
  8992.68        1.22833        2.22155
  8993.66        1.25535        2.22888
  8994.7        1.27187        2.19131
  8995.73        1.27335        2.14223
  8996.68        1.25072        2.10351
  8997.66        1.2167        2.08533
  8998.67        1.18513        2.09612
  8999.65        1.15712        2.13998
  9000.64        1.13398        2.20667
  9001.66        1.11964        2.26315
  9002.65        1.11441        2.27746
  9003.6        1.11684        2.24768
  9004.6        1.12317        2.1975
  9005.65        1.13013        2.14939
  9006.65        1.13773        2.11334
  9007.62        1.147        2.08309
  9008.64        1.15679        2.0532
  9010.2        1.16505        2.02218
  9012.48        1.15832        2.02724
  9014.7        1.1516        2.05774
  9017.12        1.12383        2.11764
  9019.6        1.09383        2.18571
  9022.12        1.0773        2.24776
  9024.72        1.06584        2.28622
  9027.37        1.06082        2.25414
  9030.15        1.06133        2.17756
  9032.98        1.07218        2.11538
  9035.94        1.08856        2.09308
  9038.93        1.1044        2.10406
  9042.03        1.12274        2.11948
  9045.19        1.13863        2.11286
  9048.45        1.1363        2.13314
  9051.84        1.1246        2.14991
  9055.22        1.12075        2.15565
  9058.78        1.11788        2.1884
  9062.3        1.11264        2.21504
  9065.96        1.11273        2.23839
  9069.66        1.11688        2.27224
  9073.43        1.12075        2.27387
  9077.27        1.12236        2.22654
  9081.19        1.12162        2.16971
  9085.15        1.11691        2.12807
  9089.18        1.10476        2.10926
  9093.28        1.08924        2.06857
  9097.44        1.07522        2.03463
  9101.66        1.06565        2.05018
  9106.02        1.06237        2.09695
  9110.48        1.0663        2.1341
  9115        1.07352        2.14341
  9119.59        1.07611        2.14732
  9124.28        1.07579        2.19795
  9129.04        1.07516        2.26666
  9133.78        1.07509        2.27124
  9138.72        1.07675        2.24251
  9143.66        1.07672        2.18626
  9148.7        1.07173        2.10674
  9153.72        1.06494        2.02544
  9158.92        1.05866        1.98425
  9164.09        1.05465        2.01941
  9169.4        1.05258        2.08592
  9174.82        1.05044        2.11917
  9180.24        1.04836        2.11647
  9185.84        1.04575        2.10783
  9191.49        1.04206        2.10132
  9197.23        1.03753        2.09392
  9203.11        1.03217        2.12802
  9209.05        1.0263        2.15964
  9215.1        1.02026        2.15386
  9221.25        1.01503        2.12381
  9227.46        1.01127        2.07246
  9233.68        1.00824        2.02719
  9240        1.00586        2.0106
  9246.49        1.00393        2.01589
  9252.9        1.00162        2.01784
  9259.38       0.998893        2.0225
  9265.96       0.995796        2.03307
  9272.55       0.992173        2.04341
  9279.3       0.988238        2.04774
  9286.06       0.98328        2.05313
  9292.97       0.978563        2.05592
  9300.03       0.973978        2.05144
  9307.15       0.969447        2.03255
  9314.26       0.964762        2.01096
  9321.48       0.96018        1.99609
  9328.73       0.955804        1.99132
  9336.1       0.951461        1.97851
  9343.49       0.947263        1.96281
  9350.91       0.942935        1.96318
  9358.4       0.938541        1.96357
  9366.06       0.934033        1.96571
  9373.87       0.929574        1.9679
  9381.69       0.925305        1.96952
  9389.51       0.921212        1.96877
  9397.43       0.917162        1.96603
  9405.4       0.913158        1.95761
  9413.4       0.909141        1.94362
  9421.38       0.905122        1.93189
  9429.46       0.901068        1.92629
  9437.67       0.896845        1.92144
  9445.96       0.89241        1.91376
  9454.36       0.88783        1.90428
  9462.79       0.883083        1.89856
  9471.32       0.878367        1.89317
  9479.91       0.873608        1.89033
  9488.72       0.868802        1.88955
  9497.47       0.864107        1.88923
  9506.39       0.859455        1.88816
  9515.4       0.854894        1.88314
  9524.37       0.850419        1.87346
  9533.49       0.845966        1.86347
  9542.76       0.841389        1.85688
  9552.13       0.836879        1.85066
  9561.49       0.8324        1.84503
  9570.9       0.82784        1.83879
  9580.35       0.823345        1.83241
  9589.8       0.818829        1.82638
  9599.31       0.814319        1.82179
  9609       0.809775        1.81754
  9618.74       0.805216        1.81353
  9628.62       0.800561        1.80971
  9638.59       0.79588        1.80488
  9648.67       0.791113        1.7991
  9658.83       0.786295        1.79289
  9668.99       0.781678        1.78652
  9679.24       0.776769        1.78039
  9689.38       0.772046        1.77432
  9699.71       0.767306        1.76821
  9710.26       0.762548        1.76228
  9720.85       0.757826        1.75638
  9731.49       0.753135        1.75087
  9742.18       0.748446        1.74568
  9752.94       0.743785        1.74084
  9763.84       0.739077        1.73594
  9774.66       0.734392        1.73061
  9785.65       0.729705        1.72496
  9796.75       0.724897        1.7195
  9807.9       0.720172        1.71384
  9819.14       0.715417        1.70778
  9830.62       0.71055        1.70164
  9836.36       0.708098        1.69837

File: Cu_foil_111.xdi
# XDI/1.0 Demeter/0.9.26
# Beamline.name: BM08-LISA
# Column.1: energy eV
# Column.2: mutrans
# Element.edge: K
# Element.symbol: Cu
# Facility.name: ESRF
# Facility.xray_source: Bending magnet
# Mono.d_spacing: 3.134692
# Mono.name: Si(111)
# Mono.notes: LNT cooled
# Sample.formula: Cu
# Sample.name: Cu metal foil
# Scan.start_time: 2023-06-27T17:30:10
# ///
# room temperature
#------------------------
#   energy  mutrans
  8780.33       0.214107
  8789.93       0.212275
  8799.75       0.210375
  8809.62       0.208329
  8819.55       0.206246
  8829.56       0.204207
  8839.54       0.202197
  8849.5       0.200211
  8859.4       0.198292
  8869.29       0.196339
  8879.3       0.194499
  8889.27       0.19261
  8899.32       0.190833
  8909.42       0.189116
  8919.35       0.187565
  8929.29       0.186174
  8939.17       0.185096
  8949.01       0.184702
  8958.99       0.185816
  8959.46       0.185972
  8960       0.186147
  8960.5       0.186309
  8960.98       0.186507
  8961.56       0.18673
  8962.01       0.18696
  8962.51       0.187179
  8963.03       0.187374
  8963.48       0.187659
  8963.99       0.187957
  8964.51       0.188276
  8965       0.188645
  8965.54       0.189049
  8966.04       0.189476
  8966.52       0.189996
  8967.06       0.190471
  8967.52       0.191033
  8968.01       0.191625
  8968.56       0.192368
  8969.02       0.193172
  8969.53       0.194101
  8970.05       0.195118
  8970.52       0.196174
  8971.07       0.197217
  8971.57       0.198536
  8972.06       0.200088
  8972.61       0.201919
  8973.1       0.204171
  8973.6       0.206675
  8974.12       0.209722
  8974.57       0.213461
  8975.09       0.218234
  8975.6       0.224501
  8976.07       0.233052
  8976.62       0.245223
  8977.13       0.263544
  8977.61       0.292659
  8978.16       0.341745
  8978.65       0.426821
  8979.15       0.534044
  8979.67       0.638517
  8980.12       0.71106
  8980.65       0.749998
  8981.16       0.764448
  8981.63       0.761709
  8982.18       0.749707
  8982.69       0.738188
  8983.17       0.736168
  8983.73       0.747446
  8984.19       0.769197
  8984.69       0.795218
  8985.22       0.819718
  8985.7       0.843604
  8986.23       0.866614
  8986.75       0.892932
  8987.22       0.924129
  8987.78       0.961123
  8988.28        1.00411
  8988.78        1.05208
  8989.33        1.10416
  8989.79        1.15856
  8990.3        1.21316
  8990.83        1.26572
  8991.28        1.31476
  8991.82        1.35854
  8992.33        1.39502
  8992.8        1.42117
  8993.36        1.43475
  8993.85        1.43546
  8994.35        1.42592
  8994.9        1.40989
  8995.36        1.39094
  8995.86        1.37156
  8996.38        1.35315
  8996.84        1.33709
  8997.36        1.32443
  8997.87        1.31638
  8998.34        1.31382
  8998.89        1.31771
  8999.39        1.32842
  8999.87        1.34563
  9000.42        1.36789
  9000.88        1.39288
  9001.37        1.4172
  9001.9        1.43755
  9002.35        1.45079
  9002.85        1.45502
  9003.37        1.45005
  9003.82        1.43755
  9004.36        1.41994
  9004.87        1.4002
  9005.34        1.38076
  9005.88        1.3634
  9006.36        1.34873
  9006.83        1.33622
  9007.36        1.32515
  9007.82        1.31424
  9008.3        1.30306
  9008.84        1.29177
  9009.3        1.2812
  9011.52        1.26073
  9013.68        1.2717
  9016.05        1.30022
  9018.45        1.34737
  9020.89        1.39453
  9023.48        1.43757
  9026.09        1.44865
  9028.84        1.40617
  9031.6        1.35033
  9034.47        1.3157
  9037.37        1.30919
  9040.4        1.3228
  9043.51        1.32773
  9046.76        1.32546
  9050.07        1.34374
  9053.46        1.34879
  9056.95        1.35955
  9060.51        1.38467
  9064.12        1.40073
  9067.87        1.42216
  9071.53        1.44209
  9075.38        1.42683
  9079.3        1.38361
  9083.2        1.34597
  9087.17        1.32156
  9091.29        1.30296
  9095.41        1.26859
  9099.59        1.25742
  9103.9        1.28163
  9108.32        1.31581
  9112.82        1.33477
  9117.36        1.33533
  9121.99        1.3488
  9126.7        1.40018
  9131.43        1.43253
  9136.28        1.4218
  9141.13        1.39286
  9146.11        1.34254
  9151.18        1.28119
  9156.32        1.22807
  9161.5        1.22108
  9166.81        1.26234
  9172.15        1.30298
  9177.54        1.31373
  9183.09        1.30647
  9188.77        1.30199
  9194.48        1.29443
  9200.29        1.29964
  9206.14        1.33074
  9212.09        1.33919
  9218.12        1.32727
  9224.25        1.29713
  9230.49        1.25901
  9236.79        1.23318
  9243.13        1.23004
  9249.56        1.23275
  9256.03        1.23433
  9262.52        1.23865
  9269.16        1.24661
  9275.82        1.25183
  9282.67        1.25377
  9289.49        1.2567
  9296.44        1.25716
  9303.54        1.24808
  9310.68        1.23269
  9317.82        1.21741
  9325.09        1.21034
  9332.35        1.2048
  9339.71        1.1922
  9347.14        1.18575
  9354.57        1.18604
  9362.13        1.18638
  9369.75        1.18745
  9377.49        1.18837
  9385.31        1.18849
  9393.2        1.18704
  9401.17        1.18312
  9409.27        1.1745
  9417.26        1.16386
  9425.29        1.15708
  9433.49        1.15326
  9441.75        1.14846
  9450.11        1.14134
  9458.5        1.13509
  9466.91        1.13097
  9475.49        1.12705
  9484.13        1.1252
  9492.93        1.1245
  9501.88        1.12366
  9510.88        1.12142
  9519.91        1.11568
  9528.95        1.10779
  9538.18        1.10138
  9547.49        1.09616
  9556.9        1.09146
  9566.32        1.08661
  9575.8        1.08164
  9585.26        1.07651
  9594.77        1.07224
  9604.35        1.06856
  9614.05        1.06519
  9623.83        1.06175
  9633.75        1.05821
  9643.77        1.05392
  9653.8        1.04922
  9663.95        1.04412
  9674.11        1.03906
  9684.41        1.03396
  9694.68        1.02892
  9705.06        1.0242
  9715.72        1.01935
  9726.35        1.01471
  9737.1        1.01024
  9747.86        1.00617
  9758.58        1.00226
  9769.5       0.99815
  9780.35       0.9937
  9791.26       0.989272
  9802.34       0.984796
  9813.57       0.980125
  9824.89       0.975397
  9836.37       0.970474

File: CuO_111.xdi
# XDI/1.0 Demeter/0.9.26
# Beamline.name: BM08-LISA
# Column.1: energy eV
# Column.2: mutrans
# Column.3: murefer
# Element.edge: K
# Element.symbol: Cu
# Facility.name: ESRF
# Facility.xray_source: Bending magnet
# Mono.d_spacing: 3.134692
# Mono.name: Si(111)
# Mono.notes: LNT cooled
# Sample.formula: CuO
# Sample.name: Copper(II) oxide, cupric oxide
# Sample.reference: Cu metal foil
# Scan.start_time: 2023-01-17T20:09:17
# ///
# room temperature
#------------------------
#  energy  mutrans  murefer
  8830.16        1.01078       0.589901
  8849.82       0.998944       0.585023
  8869.59       0.987274       0.580232
  8889.51       0.975632       0.575412
  8909.54       0.964212       0.570532
  8929.55       0.953271       0.565954
  8949.37       0.94351       0.563096
  8959.89       0.939671       0.564024
  8960.87       0.939451       0.56415
  8961.86       0.939195       0.564851
  8962.86       0.939041       0.565382
  8963.86       0.938889       0.565795
  8964.8       0.938787       0.566605
  8965.8       0.938731       0.567576
  8966.84       0.938749       0.568666
  8967.86       0.938859       0.569917
  8968.84       0.939063       0.571689
  8969.82       0.93947       0.575266
  8970.83       0.939788       0.57737
  8971.81       0.940408       0.581561
  8972.8       0.94133       0.58774
  8973.86       0.942709       0.59685
  8974.85       0.944655       0.610438
  8975.8       0.948052       0.633729
  8976.79       0.95479       0.680611
  8977.84       0.960988       0.805598
  8978.89       0.965776        1.08686
  8979.85       0.97897        1.29737
  8980.86        1.00064        1.35008
  8981.88        1.03723        1.32721
  8982.87        1.10968        1.31529
  8983.88        1.20847        1.36496
  8984.93        1.26557        1.433
  8985.97        1.27368        1.49699
  8986.93        1.28187        1.57496
  8987.93        1.32402        1.67856
  8988.98        1.39242        1.80865
  8990        1.4704        1.94949
  8990.96        1.55527        2.07498
  8991.97        1.61189        2.17017
  8992.98        1.64362        2.21376
  8993.95        1.6721        2.19902
  8994.96        1.70365        2.15279
  8996        1.73878        2.10234
  8996.99        1.75478        2.06847
  8997.93        1.74645        2.0601
  8998.93        1.72949        2.08233
  8999.96        1.70794        2.13593
  9000.94        1.67668        2.2041
  9001.92        1.64369        2.24935
  9002.93        1.61888        2.24867
  9003.91        1.60063        2.21242
  9004.87        1.58465        2.16482
  9005.9        1.57061        2.1242
  9006.94        1.56219        2.09298
  9007.9        1.56011        2.06391
  9008.87        1.56196        2.03567
  9010.44        1.56611        2.01101
  9012.71        1.56468        2.01976
  9014.95        1.55849        2.05124
  9017.32        1.54731        2.11056
  9019.78        1.52383        2.17616
  9022.31        1.49702        2.23623
  9024.91        1.4811        2.26899
  9027.54        1.4764        2.2316
  9030.3        1.48775        2.15593
  9033.12        1.50814        2.09691
  9036.08        1.53133        2.07604
  9039.08        1.55519        2.08701
  9042.17        1.57352        2.09993
  9045.32        1.58487        2.09232
  9048.58        1.59358        2.11152
  9051.97        1.59079        2.12685
  9055.35        1.57954        2.13456
  9058.92        1.56733        2.16781
  9062.43        1.55537        2.19348
  9066.09        1.54571        2.21745
  9069.79        1.53732        2.25061
  9073.53        1.53053        2.25007
  9077.38        1.52554        2.20342
  9081.3        1.522        2.14875
  9085.24        1.51808        2.10848
  9089.26        1.51437        2.08952
  9093.35        1.51149        2.04826
  9097.53        1.50783        2.01645
  9101.76        1.50501        2.0332
  9106.12        1.50231        2.07933
  9110.56        1.4996        2.11502
  9115.09        1.49622        2.12344
  9119.71        1.49588        2.12781
  9124.39        1.49973        2.17787
  9129.11        1.50526        2.24236
  9133.86        1.50752        2.24437
  9138.81        1.50592        2.21688
  9143.75        1.50273        2.16138
  9148.81        1.4988        2.08353
  9153.81        1.49384        2.00502
  9159.01        1.48708        1.96697
  9164.18        1.4775        2.00355
  9169.47        1.46619        2.06876
  9174.89        1.45704        2.10049
  9180.31        1.45511        2.09713
  9185.9        1.45745        2.08818
  9191.54        1.45664        2.08149
  9197.28        1.45166        2.0748
  9203.16        1.44628        2.10866
  9209.09        1.44046        2.13868
  9215.13        1.43746        2.13228
  9221.28        1.43817        2.10281
  9227.49        1.43761        2.05213
  9233.73        1.43148        2.0085
  9240.1        1.42421        1.99346
  9246.59        1.42045        1.99867
  9252.96        1.41835        2.00057
  9259.46        1.41542        2.00517
  9266.04        1.41089        2.01577
  9272.67        1.40393        2.0261
  9279.44        1.39726        2.0298
  9286.28        1.39308        2.03574
  9293.2        1.38957        2.03816
  9300.26        1.38534        2.03295
  9307.39        1.38012        2.01414
  9314.48        1.37382        1.99356
  9321.67        1.36807        1.97973
  9328.9        1.36419        1.97477
  9336.25        1.36027        1.96197
  9343.64        1.35521        1.94716
  9351.07        1.3493        1.94789
  9358.58        1.34448        1.94809
  9366.22        1.3417        1.95017
  9374.01        1.33946        1.95233
  9381.84        1.33587        1.95383
  9389.67        1.3311        1.95325
  9397.6        1.3252        1.95086
  9405.56        1.31895        1.94245
  9413.53        1.31342        1.92864
  9421.54        1.30844        1.91742
  9429.65        1.30254        1.9122
  9437.85        1.29645        1.90773
  9446.13        1.29114        1.90001
  9454.54        1.28633        1.89065
  9462.95        1.28182        1.88552
  9471.56        1.2779        1.88022
  9480.09        1.2737        1.87711
  9488.89        1.2684        1.87672
  9497.61        1.2627        1.87684
  9506.48        1.25747        1.87561
  9515.46        1.25242        1.87063
  9524.45        1.2467        1.86111
  9533.52        1.24094        1.85145
  9542.75        1.23586        1.84497
  9552.09        1.23087        1.83904
  9561.44        1.22575        1.8335
  9570.85        1.22064        1.82767
  9580.27        1.2157        1.82121
  9589.76        1.2105        1.81537
  9599.32        1.20468        1.81102
  9609.06        1.19874        1.80687
  9618.83        1.19312        1.80289
  9628.71        1.18742        1.7992
  9638.69        1.18167        1.79476
  9648.75        1.17612        1.78912
  9658.9        1.17064        1.78273
  9669.08        1.16547        1.77645
  9679.28        1.16009        1.7704
  9689.43        1.15474        1.76428
  9699.77        1.14953        1.75832
  9710.34        1.14409        1.75266
  9720.94        1.13843        1.74684
  9731.61        1.1326        1.74135
  9742.37        1.12674        1.73631
  9753.13        1.12073        1.73161
  9764.05        1.11478        1.72676
  9774.84        1.109        1.72154
  9785.79        1.10327        1.71612
  9796.88        1.09768        1.71068
  9807.99        1.09204        1.70515
  9819.22        1.08647        1.69929
  9830.68        1.0807        1.69328
  9836.41        1.07781        1.69011