Folder: XAS_database/root/data (part 5)

File: SnO2_111.xdi
# XDI/1.0 Demeter/0.9.26
# Beamline.name: BM08-LISA
# Column.1: energy eV
# Column.2: mutrans
# Column.3: murefer
# Element.edge: K
# Element.symbol: Sn
# Facility.name: ESRF
# Facility.xray_source: Bending magnet
# Mono.d_spacing: 3.134692
# Mono.name: Si(111)
# Mono.notes: LNT cooled
# Sample.formula: SnO2
# Sample.name: Tin(IV) oxide, stannic oxide
# Sample.reference: Sn metal foil
# Scan.start_time: 2023-09-22T12:01:51
# ///
# room temperature
#------------------------
#  energy  mutrans  murefer
  29000.486       0.43797       0.152025
  29008.616       0.438407       0.152142
  29018.121       0.438483       0.152356
  29028.124       0.43884       0.152781
  29037.689       0.438936       0.153141
  29047.873       0.43924       0.153642
  29057.888       0.439543       0.154348
  29067.352       0.439953       0.155067
  29077.370       0.440501       0.15617
  29087.312       0.441105       0.157559
  29096.972       0.441343       0.15951
  29107.347       0.443142       0.162013
  29117.450       0.444565       0.16502
  29127.008       0.446173       0.169198
  29137.124       0.448767       0.175062
  29147.210       0.452847       0.183322
  29157.031       0.459243       0.197276
  29167.112       0.4701       0.221477
  29177.603       0.493161       0.276886
  29182.608       0.517652       0.343138
  29183.451       0.52368       0.360878
  29184.557       0.532006       0.385865
  29185.439       0.539865       0.408948
  29186.386       0.54883       0.438076
  29187.614       0.561439       0.480174
  29188.617       0.573908       0.523209
  29189.883       0.59172       0.586675
  29190.849       0.608136       0.648303
  29191.815       0.629339       0.729175
  29192.988       0.660418       0.846863
  29193.851       0.690085       0.960253
  29194.723       0.727555        1.09405
  29195.793       0.785112        1.27628
  29196.618       0.840278        1.42818
  29197.444       0.906861        1.57792
  29198.542        1.00521        1.7398
  29199.405        1.09447        1.83794
  29200.296        1.19125        1.90297
  29201.517        1.31184        1.93257
  29202.493        1.40093        1.92281
  29203.478        1.47093        1.89323
  29204.792        1.52896        1.84416
  29205.797        1.54778        1.80553
  29206.755        1.54387        1.77239
  29207.947        1.51396        1.74297
  29208.867        1.47549        1.72621
  29209.741        1.4332        1.71506
  29210.821        1.38047        1.70608
  29211.694        1.34164        1.70145
  29212.521        1.30653        1.69849
  29213.629        1.27119        1.69646
  29214.521        1.24799        1.69689
  29215.470        1.22781        1.69828
  29216.701        1.20776        1.70188
  29217.734        1.19356        1.70489
  29218.740        1.18156        1.70878
  29220.065        1.16852        1.712
  29221.080        1.15914        1.71375
  29222.057        1.14962        1.71359
  29223.260        1.13803        1.71099
  29224.153        1.12741        1.70755
  29225.028        1.11539        1.70154
  29226.127        1.09994        1.6934
  29226.974        1.08725        1.6858
  29228.356        1.0713        1.67292
  29230.725        1.05993        1.65902
  29232.945        1.06408        1.66003
  29235.607        1.0764        1.67562
  29238.063        1.09097        1.69703
  29240.575        1.1113        1.72039
  29242.712        1.13355        1.73762
  29245.244        1.1626        1.75079
  29248.341        1.1923        1.75142
  29251.223        1.21048        1.7381
  29254.189        1.2203        1.71532
  29256.902        1.22505        1.69309
  29259.654        1.22825        1.67796
  29262.698        1.22971        1.67322
  29266.298        1.22818        1.6788
  29269.570        1.22315        1.69055
  29272.597        1.21233        1.70553
  29275.757        1.19662        1.7215
  29279.673        1.17827        1.73642
  29283.476        1.1641        1.73977
  29286.893        1.15549        1.72993
  29290.292        1.15076        1.71513
  29294.466        1.14615        1.70226
  29298.557        1.1421        1.69611
  29302.157        1.13988        1.69561
  29306.089        1.14451        1.70029
  29310.201        1.15571        1.70659
  29314.495        1.16951        1.71434
  29318.336        1.17969        1.72024
  29322.745        1.18567        1.7222
  29327.298        1.18894        1.7215
  29331.653        1.19037        1.71924
  29335.877        1.19018        1.71476
  29341.069        1.18972        1.71081
  29345.646        1.18978        1.70829
  29350.112        1.19038        1.70725
  29355.147        1.19136        1.70756
  29360.346        1.18873        1.7079
  29364.977        1.18221        1.70931
  29369.856        1.17477        1.71003
  29375.411        1.16693        1.71038
  29380.085        1.16139        1.70964
  29385.349        1.15883        1.70665
  29390.910        1.15965        1.70313
  29395.960        1.16234        1.69935
  29402.106        1.16463        1.69572
  29407.530        1.16521        1.69325
  29412.976        1.16618        1.69192
  29419.138        1.1673        1.69144
  29424.703        1.16724        1.69214
  29430.345        1.16634        1.6917
  29436.524        1.16617        1.69105
  29442.029        1.16649        1.68982
  29448.403        1.16843        1.687
  29454.533        1.1689        1.68319
  29460.875        1.16919        1.67963
  29467.545        1.16814        1.67548
  29473.443        1.1646        1.67265
  29480.157        1.15849        1.67077
  29486.318        1.15242        1.66861
  29493.028        1.14971        1.66747
  29499.483        1.14895        1.66688
  29506.180        1.15076        1.66638
  29513.436        1.15012        1.66496
  29519.755        1.14855        1.66282
  29527.604        1.14742        1.66001
  29534.150        1.14769        1.65697
  29541.814        1.14681        1.6535
  29548.501        1.14489        1.65019
  29556.009        1.14443        1.64727
  29562.837        1.14645        1.64486
  29570.689        1.14901        1.64299
  29577.746        1.15031        1.64176
  29585.683        1.14862        1.64082
  29593.421        1.14388        1.63904
  29601.289        1.13979        1.63738
  29608.834        1.13635        1.63597
  29616.884        1.13454        1.6331
  29624.426        1.13497        1.63053
  29632.987        1.13493        1.62818
  29640.645        1.13425        1.62543
  29649.486        1.1338        1.62232
  29657.655        1.13371        1.62042
  29666.313        1.13368        1.61848
  29674.395        1.13132        1.6171
  29683.024        1.12711        1.61517
  29691.658        1.12421        1.61358
  29700.491        1.12292        1.61207
  29709.436        1.12454        1.60998
  29718.193        1.12701        1.60782
  29727.538        1.12816        1.60572
  29735.886        1.12827        1.60414
  29745.467        1.12712        1.60192
  29754.244        1.12498        1.59969
  29763.681        1.12181        1.59762
  29773.845        1.11831        1.59566
  29782.766        1.11616        1.59422
  29792.416        1.11539        1.59289
  29801.779        1.11533        1.59113
  29811.245        1.11588        1.5898
  29821.687        1.1167        1.58793
  29831.166        1.11665        1.58588
  29841.425        1.11519        1.58421
  29851.643        1.11294        1.58219
  29861.043        1.11087        1.58008
  29871.303        1.10973        1.57809
  29881.699        1.10956        1.57602
  29891.816        1.10969        1.57439
  29902.688        1.10888        1.57276
  29913.027        1.10783        1.57113
  29922.880        1.1069        1.56959
  29933.844        1.10683        1.5674
  29944.589        1.10557        1.56577
  29955.173        1.10357        1.56368
  29966.428        1.10175        1.56151
  29977.651        1.10053        1.55954
  29988.210        1.0998        1.55849
  29999.361        1.09803        1.55681
  30010.857        1.09861        1.55502
  30021.886        1.09769        1.55327
  30033.240        1.09673        1.55129
  30044.862        1.09564        1.5497
  30056.164        1.09472        1.54762
  30067.116        1.0943        1.54602
  30079.153        1.0935        1.54408
  30091.129        1.09259        1.54226
  30102.845        1.09158        1.5404
  30114.151        1.09083        1.53812
  30126.395        1.0898        1.5369
  30138.639        1.08857        1.53495
  30150.913        1.087        1.53285
  30162.826        1.08564        1.53112
  30169.337        1.08515        1.53029

File: SnO_111.xdi
# XDI/1.0 Demeter/0.9.26
# Beamline.name: BM08-LISA
# Column.1: energy eV
# Column.2: mutrans
# Column.3: murefer
# Element.edge: K
# Element.symbol: Sn
# Facility.name: ESRF
# Facility.xray_source: Bending magnet
# Mono.d_spacing: 3.134692
# Mono.name: Si(111)
# Mono.notes: LNT cooled
# Sample.formula: SnO
# Sample.name: Tin(II) oxide, Stannous oxide
# Sample.reference: Sn metal foil
# Scan.start_time: 2023-09-22T10:37:03
# ///
# room temperature
#------------------------
#  energy  mutrans  murefer
  28998.931       0.406419       0.151668
  29006.930       0.406622       0.151552
  29016.694       0.406528       0.151813
  29026.520       0.406388       0.15227
  29036.140       0.406471       0.152705
  29046.555       0.406646       0.153074
  29056.420       0.40683       0.153748
  29065.938       0.40698       0.154683
  29076.123       0.407431       0.155566
  29085.869       0.407795       0.156883
  29095.602       0.40841       0.158969
  29106.135       0.409326       0.161226
  29116.134       0.410421       0.164208
  29125.757       0.412152       0.168157
  29136.050       0.414526       0.173845
  29145.948       0.41774       0.181688
  29155.806       0.423572       0.194733
  29166.045       0.433651       0.216788
  29176.469       0.455924       0.266387
  29181.595       0.481029       0.323422
  29182.439       0.48759       0.338145
  29183.498       0.496696       0.358926
  29184.342       0.504775       0.377943
  29185.260       0.514947       0.401564
  29186.442       0.529491       0.435623
  29187.398       0.543641       0.468768
  29188.673       0.565101       0.51981
  29189.658       0.585165       0.567344
  29190.662       0.610911       0.628909
  29191.871       0.649447       0.719693
  29192.781       0.688437       0.809331
  29193.691       0.73831       0.920698
  29194.779       0.810595        1.07494
  29195.624       0.879721        1.21557
  29196.449       0.959824        1.37267
  29197.519        1.06226        1.56488
  29198.335        1.13748        1.70027
  29199.208        1.20617        1.81561
  29200.353        1.26579        1.90179
  29201.282        1.29265        1.926
  29202.258        1.30012        1.91797
  29203.535        1.28826        1.88149
  29204.539        1.26651        1.84439
  29205.553        1.23812        1.80674
  29206.849        1.20087        1.76838
  29207.759        1.17414        1.74573
  29208.670        1.15085        1.72837
  29209.806        1.12829        1.71473
  29210.670        1.11474        1.70656
  29211.544        1.10208        1.70163
  29212.633        1.08863        1.69832
  29213.526        1.077        1.69672
  29214.437        1.06428        1.6965
  29215.630        1.04807        1.69877
  29216.588        1.03446        1.70139
  29217.603        1.0221        1.70524
  29218.947        1.00783        1.7096
  29219.971       0.99833        1.7122
  29221.005       0.991086        1.71375
  29222.264       0.984809        1.7137
  29223.194       0.982219        1.71197
  29224.116       0.981308        1.70808
  29225.234       0.984072        1.70203
  29226.090       0.988316        1.69526
  29227.481       0.998761        1.68327
  29229.776        1.02187        1.66559
  29231.957        1.04133        1.65979
  29234.591        1.05473        1.6702
  29237.141        1.05884        1.68979
  29239.766        1.05632        1.71375
  29241.883        1.05802        1.73201
  29244.359        1.06844        1.74856
  29247.371        1.08878        1.7539
  29250.253        1.10543        1.74556
  29253.342        1.11271        1.72403
  29256.092        1.105        1.70057
  29258.806        1.08909        1.68223
  29261.765        1.07219        1.67404
  29265.365        1.05656        1.67696
  29268.759        1.04253        1.68754
  29271.824        1.03418        1.70125
  29274.927        1.033        1.71735
  29278.814        1.03908        1.73475
  29282.664        1.04597        1.74121
  29286.156        1.05163        1.7343
  29289.508        1.05533        1.7198
  29293.569        1.05845        1.70585
  29297.754        1.05926        1.69803
  29301.420        1.05909        1.69664
  29305.276        1.06103        1.70046
  29309.313        1.06603        1.70673
  29313.719        1.07176        1.71411
  29317.588        1.07526        1.72001
  29321.874        1.07462        1.72337
  29326.417        1.07209        1.72278
  29330.896        1.06866        1.72048
  29335.091        1.06449        1.71683
  29340.188        1.06011        1.71229
  29344.888        1.05695        1.70938
  29349.353        1.05385        1.70803
  29354.256        1.05452        1.70793
  29359.596        1.056        1.70861
  29364.227        1.05665        1.70955
  29368.982        1.0571        1.71031
  29374.632        1.0567        1.71173
  29379.306        1.05703        1.71059
  29384.427        1.05718        1.70821
  29390.112        1.05758        1.7046
  29395.152        1.05727        1.70107
  29401.211        1.05671        1.69725
  29406.778        1.05744        1.69473
  29412.148        1.05759        1.69305
  29418.300        1.05674        1.69256
  29423.940        1.05446        1.69282
  29429.392        1.05313        1.69258
  29435.656        1.05177        1.69253
  29441.151        1.04958        1.69095
  29447.420        1.04683        1.68817
  29453.692        1.04443        1.68448
  29459.872        1.04347        1.68094
  29466.656        1.04323        1.67708
  29472.525        1.04369        1.67403
  29479.191        1.04312        1.67165
  29485.428        1.0444        1.66995
  29491.985        1.04414        1.66889
  29498.631        1.0438        1.66819
  29505.174        1.04109        1.66787
  29512.563        1.0401        1.66644
  29518.854        1.03849        1.66409
  29526.759        1.03761        1.66157
  29533.305        1.03643        1.65867
  29540.920        1.03558        1.65531
  29547.684        1.03694        1.65197
  29555.095        1.03638        1.64885
  29562.048        1.03496        1.6468
  29569.784        1.03289        1.64451
  29577.043        1.03033        1.64304
  29584.815        1.02797        1.6418
  29592.708        1.02681        1.64046
  29600.421        1.02526        1.63906
  29608.100        1.02598        1.63687
  29616.005        1.02657        1.63508
  29623.673        1.02647        1.63234
  29632.108        1.02604        1.63028
  29639.910        1.02555        1.62657
  29648.693        1.02312        1.62445
  29656.910        1.02176        1.62152
  29665.558        1.01999        1.61995
  29673.571        1.01923        1.61833
  29682.296        1.01811        1.61655
  29690.881        1.01768        1.61528
  29699.831        1.01683        1.61332
  29708.659        1.01674        1.61148
  29717.561        1.01651        1.60937
  29726.838        1.01548        1.60703
  29735.195        1.01309        1.60522
  29744.824        1.01239        1.60313
  29753.514        1.01136        1.60096
  29763.105        1.01038        1.59928
  29773.240        1.01008        1.59752
  29782.190        1.00918        1.59563
  29791.888        1.00934        1.59409
  29801.182        1.00917        1.59281
  29810.727        1.00799        1.59143
  29821.187        1.00689        1.58907
  29830.647        1.00591        1.58706
  29841.053        1.00436        1.58506
  29851.133        1.00224        1.58308
  29860.562        1.00233        1.5811
  29870.881        1.00187        1.57906
  29881.207        1.00155        1.57692
  29891.383        1.00037        1.5757
  29902.295       0.999864        1.5738
  29912.574       0.99837        1.57198
  29922.476       0.997694        1.57021
  29933.469       0.995875        1.56849
  29944.134       0.995599        1.56702
  29954.788       0.993196        1.5644
  29966.082       0.993506        1.56259
  29977.236       0.993454        1.56088
  29987.765       0.992323        1.55944
  29999.034       0.989609        1.55792
  30010.421       0.991079        1.55598
  30021.380       0.988721        1.5543
  30032.793       0.987199        1.55258
  30044.404       0.988001        1.55075
  30055.587       0.986122        1.54913
  30066.579       0.986143        1.54735
  30078.705       0.985424        1.54532
  30090.630       0.984675        1.54345
  30102.207       0.983632        1.54162
  30113.582       0.98291        1.53948
  30125.886       0.981985        1.53779
  30138.049       0.980874        1.53595
  30150.262       0.979724        1.53392
  30162.205       0.978923        1.53175
  30168.676       0.977092        1.53081