Folder: XAS_database/root/data (part 2)

File: Fe2O3_111.xdi
# XDI/1.0 Demeter/0.9.26
# Beamline.name: BM08-LISA
# Column.1: energy eV
# Column.2: mutrans
# Column.3: murefer
# Element.edge: K
# Element.symbol: Fe
# Facility.name: ESRF
# Facility.xray_source: Bending magnet
# Mono.d_spacing: 3.134692
# Mono.name: Si(111)
# Mono.notes: LNT cooled
# Sample.formula: Fe2O3
# Sample.name: Iron(III) oxide, ferric oxide
# Sample.reference: Fe metal foil
# Scan.start_time: 2021-07-14T08:49:39
# ///
# room temperature
#------------------------
#  energy  mutrans  murefer
  7012.45        1.76442       -1.58369
  7022.22        1.75787       -1.58876
  7032.07        1.75097       -1.59334
  7042.06        1.74488       -1.59891
  7052.06        1.73851       -1.60378
  7061.97        1.7325       -1.60858
  7071.85        1.72677       -1.61305
  7081.72        1.72167       -1.61703
  7091.79        1.7178       -1.61998
  7092.35        1.71763       -1.62013
  7092.96        1.71744       -1.62016
  7093.59        1.71734       -1.62028
  7094.17        1.71718       -1.62021
  7094.73        1.71712       -1.62035
  7095.36        1.71702       -1.6203
  7095.96        1.71697       -1.62039
  7096.53        1.71686       -1.62035
  7097.16        1.71684       -1.6203
  7097.78        1.71685       -1.62025
  7098.34        1.71687       -1.62019
  7098.92        1.71684       -1.61999
  7099.55        1.71692       -1.61988
  7100.14        1.71697       -1.6197
  7100.71        1.71705       -1.61944
  7101.32        1.7172       -1.61916
  7101.93        1.71737       -1.61876
  7102.48        1.71756       -1.6183
  7103.09        1.71777       -1.61785
  7103.71        1.71809       -1.6172
  7104.27        1.71844       -1.61646
  7104.87        1.71883       -1.61555
  7105.48        1.71933       -1.61448
  7106.05        1.71997       -1.6132
  7106.64        1.72065       -1.61147
  7107.27        1.72147       -1.60925
  7107.86        1.72246       -1.60643
  7108.43        1.72366       -1.60225
  7109.04        1.72518       -1.59635
  7109.65        1.72712       -1.58728
  7110.21        1.72988       -1.57211
  7110.82        1.73366       -1.54383
  7111.44        1.73933       -1.49105
  7111.99        1.74894       -1.41548
  7112.59        1.76831       -1.34486
  7113.22        1.79733       -1.29431
  7113.8        1.81752       -1.25478
  7114.38        1.83748       -1.2206
  7115        1.84635       -1.1938
  7115.59        1.84053       -1.18202
  7116.15        1.83798       -1.17313
  7116.77        1.84109       -1.16472
  7117.38        1.84802       -1.1488
  7117.93        1.85416       -1.11907
  7118.53        1.86088       -1.07514
  7119.14        1.87311       -1.0231
  7119.69        1.89532      -0.966425
  7120.3        1.93155      -0.905505
  7120.94        1.98904      -0.838561
  7121.51        2.07052      -0.774236
  7122.09        2.18533      -0.712735
  7122.71        2.34144      -0.651817
  7123.3        2.52779      -0.587849
  7123.89        2.70724      -0.523361
  7124.52        2.85584      -0.463076
  7125.13        2.99015      -0.404502
  7125.67        3.12735      -0.341203
  7126.29        3.28081      -0.262828
  7126.92        3.43648      -0.169308
  7127.5        3.57365      -0.0678642
  7128.1        3.68408       0.0323487
  7128.73        3.77438       0.129485
  7129.32        3.84392       0.216896
  7129.9        3.88502       0.280915
  7130.53        3.90111       0.315365
  7131.16        3.90641       0.331481
  7131.73        3.91481       0.34166
  7132.34        3.93099       0.35188
  7132.97        3.94967       0.360265
  7133.55        3.96083       0.358926
  7134.15        3.96028       0.342511
  7134.78        3.94718       0.312699
  7135.37        3.92407       0.273889
  7135.94        3.89733       0.23418
  7136.56        3.87212       0.201055
  7137.18        3.85081       0.177019
  7137.76        3.83323       0.15995
  7138.39        3.81475       0.145241
  7139.01        3.79354       0.130272
  7139.58        3.7671       0.11318
  7140.19        3.73777       0.095034
  7140.83        3.70753       0.0764903
  7141.44        3.67766       0.0573994
  7142.03        3.65038       0.0386722
  7142.64        3.62706       0.0209483
  7143.25        3.60693       0.00484867
  7143.83        3.59142      -0.00833159
  7144.45        3.58136      -0.0171924
  7145.1        3.57655      -0.0206019
  7145.67        3.57631      -0.0194713
  7146.27        3.5786      -0.0143298
  7146.9        3.58124      -0.00603759
  7147.51        3.58189       0.00256813
  7148.08        3.57784       0.00997799
  7148.71        3.5681       0.0138577
  7149.34        3.55365       0.0144228
  7149.9        3.53625       0.0112764
  7150.49        3.51738       0.00621888
  7151.12        3.4977      -0.000457322
  7151.71        3.47863      -0.00645349
  7154.2        3.41299      -0.030748
  7156.78        3.34785      -0.0678474
  7159.43        3.2946      -0.0953489
  7162.18        3.28688      -0.102285
  7164.99        3.31064      -0.104271
  7167.89        3.34679      -0.0983505
  7170.83        3.40798      -0.081842
  7173.9        3.50333      -0.0580584
  7177        3.5812      -0.0449327
  7180.17        3.60795      -0.0500264
  7183.49        3.60839      -0.0483748
  7186.9        3.59604      -0.0384352
  7190.4        3.58553      -0.0148182
  7193.97        3.56745       0.00291809
  7197.55        3.54129      -0.0220141
  7201.2        3.51472      -0.0756374
  7204.97        3.48282      -0.140558
  7208.81        3.46302      -0.170731
  7212.65        3.45379      -0.115155
  7216.57        3.45601      -0.0130273
  7220.58        3.47056       0.0487465
  7224.72        3.47616       0.0195372
  7228.88        3.4693      -0.0682642
  7233.08        3.45626      -0.158901
  7237.41        3.45616      -0.207781
  7241.84        3.45784      -0.207196
  7246.33        3.44411      -0.186699
  7250.9        3.4277      -0.183326
  7255.56        3.42432      -0.202033
  7260.34        3.43772      -0.194488
  7265.12        3.45336      -0.171203
  7269.95        3.46003      -0.15116
  7274.92        3.45848      -0.123032
  7279.98        3.46841      -0.106413
  7285.12        3.46948      -0.0850063
  7290.41        3.45988      -0.0848127
  7295.71        3.44711      -0.140763
  7301.14        3.43117      -0.206373
  7306.53        3.40706      -0.251365
  7312.01        3.38325      -0.272173
  7317.53        3.35829      -0.285352
  7323.2        3.34508      -0.29505
  7329.01        3.35425      -0.29356
  7334.85        3.37386      -0.29701
  7340.77        3.3945      -0.297485
  7346.76        3.39978      -0.272232
  7352.87        3.38834      -0.245073
  7358.85        3.37518      -0.226853
  7364.98        3.35898      -0.219562
  7371.16        3.3397      -0.23936
  7377.44        3.32509      -0.293773
  7383.8        3.31715      -0.360041
  7390.28        3.30862      -0.381849
  7396.89        3.30629      -0.374159
  7403.52        3.31577      -0.371486
  7410.18        3.32495      -0.369348
  7416.81        3.3267      -0.370444
  7423.57        3.3185      -0.383433
  7430.47        3.30228      -0.400631
  7437.5        3.283      -0.405896
  7444.48        3.263      -0.39825
  7451.65        3.24972      -0.391317
  7458.9        3.24517      -0.395689
  7466.19        3.24494      -0.407835
  7473.52        3.24418      -0.430376
  7480.83        3.24414      -0.448012
  7488.29        3.23939      -0.468278
  7495.92        3.23048      -0.486313
  7503.58        3.22134      -0.489858
  7511.33        3.21219      -0.493854
  7519.18        3.20295      -0.503414
  7527.06        3.19603      -0.509392
  7535.05        3.18832      -0.513489
  7543.06        3.18163      -0.522236
  7551.23        3.17555      -0.529554
  7559.35        3.16852      -0.529366
  7567.6        3.16044      -0.532167
  7575.9        3.15306      -0.546429
  7584.23        3.14443      -0.565911
  7592.65        3.13587      -0.578456
  7601.33        3.1262      -0.585388
  7609.97        3.11705      -0.595391
  7618.59        3.11038      -0.604964
  7627.34        3.09928      -0.60302
  7636.15        3.10203      -0.62148
  7645.09        3.0894      -0.634571
  7654.16        3.07886      -0.644733
  7663.42        3.07032      -0.651323
  7672.82        3.06131      -0.655213
  7682.06        3.05433      -0.659463
  7691.43        3.04666      -0.667201
  7700.94        3.04156      -0.678513
  7710.5        3.03145      -0.685871
  7720.33        3.02671      -0.700951
  7730.06        3.01723      -0.710256
  7739.89        3.00754      -0.718392
  7749.63        2.99824      -0.727499
  7759.46        2.9884      -0.736219
  7769.39        2.97847      -0.746808
  7779.41        2.96963      -0.756787
  7789.58        2.96173      -0.765459
  7799.79        2.95385      -0.773207
  7810.09        2.9456      -0.779961
  7820.53        2.93717      -0.78742
  7831.05        2.92845      -0.795521
  7841.71        2.91957      -0.803777
  7852.38        2.91036      -0.812706
  7863.01        2.90099      -0.821967
  7873.8        2.89145      -0.831681
  7884.71        2.88262      -0.8412
  7895.66        2.87384      -0.850039
  7906.79        2.8641      -0.85824
  7917.73        2.85632      -0.867683
  7928.71        2.84742      -0.876124
  7939.91        2.8343      -0.880154
  7951.22        2.82918      -0.891343
  7962.62        2.82015      -0.899102
  7973.93        2.8108      -0.906774

File: Fe_foil_311.xdi
# XDI/1.0 Demeter/0.9.26
# Beamline.name: BM08-LISA
# Column.1: energy eV
# Column.2: mutrans
# Element.edge: K
# Element.symbol: Fe
# Facility.name: ESRF
# Facility.xray_source: Bending magnet
# Mono.d_spacing: 1.637039
# Mono.name: Si(311)
# Mono.notes: LNT cooled
# Sample.formula: Fe
# Sample.name: Fe metal foil
# Scan.start_time: 2023-10-03T19:47:09
# ///
# room temperature
#------------------------
#   energy  mutrans
  6912.06       -1.5227
  6921.91       -1.52618
  6931.8       -1.52919
  6941.72       -1.53205
  6951.79       -1.53496
  6961.75       -1.5379
  6971.74       -1.54064
  6981.79       -1.5436
  6991.77       -1.5464
  7001.73       -1.54925
  7011.78       -1.5521
  7021.9       -1.5551
  7031.94       -1.55771
  7042.06       -1.56024
  7052.06       -1.56296
  7062.07       -1.56536
  7071.96       -1.56737
  7081.89       -1.56901
  7091.82       -1.56958
  7092.21       -1.56963
  7092.6       -1.56954
  7093       -1.56952
  7093.4       -1.56953
  7093.8       -1.56949
  7094.19       -1.56941
  7094.59       -1.56941
  7094.99       -1.56925
  7095.4       -1.56921
  7095.8       -1.56907
  7096.19       -1.56895
  7096.6       -1.56874
  7097       -1.5689
  7097.4       -1.56858
  7097.8       -1.56845
  7098.21       -1.56833
  7098.61       -1.56832
  7099.01       -1.56806
  7099.41       -1.5678
  7099.82       -1.56756
  7100.22       -1.56736
  7100.62       -1.56709
  7101.02       -1.56673
  7101.42       -1.5665
  7101.81       -1.56617
  7102.2       -1.5658
  7102.6       -1.56548
  7103       -1.56501
  7103.4       -1.56453
  7103.79       -1.56404
  7104.19       -1.5634
  7104.59       -1.56276
  7104.98       -1.56206
  7105.38       -1.56115
  7105.78       -1.56047
  7106.18       -1.55948
  7106.57       -1.55806
  7106.97       -1.5567
  7107.37       -1.555
  7107.77       -1.55318
  7108.16       -1.55078
  7108.55       -1.54791
  7108.95       -1.54422
  7109.35       -1.53931
  7109.74       -1.53264
  7110.14       -1.52252
  7110.54       -1.50629
  7110.94       -1.47775
  7111.32       -1.43126
  7111.71       -1.37148
  7112.11       -1.31856
  7112.51       -1.28004
  7112.9       -1.25148
  7113.29       -1.22628
  7113.69       -1.20263
  7114.08       -1.18042
  7114.47       -1.16052
  7114.87       -1.14467
  7115.27       -1.13305
  7115.67       -1.12558
  7116.07       -1.12129
  7116.46       -1.11773
  7116.87       -1.11152
  7117.28       -1.09907
  7117.68       -1.07811
  7118.08       -1.04823
  7118.49       -1.01164
  7118.89      -0.973933
  7119.29      -0.935797
  7119.69      -0.895181
  7120.09      -0.85271
  7120.49      -0.808548
  7120.89      -0.764311
  7121.29      -0.72333
  7121.7      -0.686084
  7122.1      -0.65426
  7122.5      -0.626793
  7122.89      -0.602354
  7123.3      -0.578867
  7123.7      -0.557414
  7124.09      -0.536658
  7124.49      -0.51688
  7124.9      -0.497323
  7125.29      -0.478644
  7125.68      -0.460637
  7126.08      -0.443319
  7126.48      -0.425867
  7126.88      -0.408226
  7127.27      -0.388991
  7127.68      -0.367609
  7128.08      -0.344424
  7128.47      -0.320604
  7128.86      -0.296686
  7129.26      -0.272385
  7129.66      -0.249124
  7130.05      -0.231451
  7130.44      -0.216227
  7130.84      -0.205924
  7131.23      -0.203628
  7131.63      -0.208536
  7132.02      -0.220204
  7132.42      -0.237228
  7132.82      -0.256746
  7133.22      -0.278062
  7133.61      -0.298099
  7134.01      -0.318531
  7134.41      -0.335198
  7134.8      -0.348775
  7135.2      -0.362572
  7135.6      -0.372953
  7136      -0.380773
  7136.4      -0.385504
  7136.79      -0.388469
  7137.18      -0.389262
  7137.59      -0.387106
  7137.98      -0.384509
  7138.38      -0.378897
  7138.77      -0.373167
  7139.18      -0.365754
  7139.57      -0.359861
  7139.96      -0.353002
  7140.36      -0.347447
  7140.76      -0.343055
  7141.16      -0.339862
  7141.56      -0.338789
  7142.63      -0.342
  7144.81      -0.355494
  7147.12      -0.333723
  7149.47      -0.288525
  7151.9      -0.267514
  7154.38      -0.261546
  7156.95      -0.274004
  7159.63      -0.279253
  7162.38      -0.283376
  7165.26      -0.29489
  7168.21      -0.302711
  7171.23      -0.315029
  7174.29      -0.345614
  7177.39      -0.385571
  7180.6      -0.408142
  7183.89      -0.401672
  7187.26      -0.373144
  7190.71      -0.33283
  7194.25      -0.29918
  7197.85      -0.317173
  7201.52      -0.365032
  7205.24      -0.419858
  7209.03      -0.433566
  7212.95      -0.351287
  7216.91      -0.229625
  7220.89      -0.174277
  7224.98      -0.224806
  7229.23      -0.328476
  7233.53      -0.425373
  7237.95      -0.472948
  7242.44      -0.463254
  7246.97      -0.428392
  7251.56      -0.420318
  7256.24      -0.439293
  7261.08      -0.428762
  7265.89      -0.410466
  7270.72      -0.385968
  7275.7      -0.353967
  7280.73      -0.338351
  7285.86      -0.311618
  7291.06      -0.315325
  7296.25      -0.378552
  7301.53      -0.438078
  7306.89      -0.472155
  7312.33      -0.478843
  7317.83      -0.47978
  7323.45      -0.482855
  7329.19      -0.485056
  7334.97      -0.498961
  7340.81      -0.504036
  7346.71      -0.476011
  7352.74      -0.438046
  7358.81      -0.409408
  7364.92      -0.392572
  7371.14      -0.405913
  7377.46      -0.460983
  7383.85      -0.529038
  7390.28      -0.544237
  7396.83      -0.533057
  7403.58      -0.533232
  7410.29      -0.532856
  7417.08      -0.533131
  7423.94      -0.544149
  7430.92      -0.552798
  7437.93      -0.547463
  7445      -0.527992
  7452.17      -0.515446
  7459.32      -0.515163
  7466.65      -0.530756
  7474.1      -0.554451
  7481.68      -0.571531
  7489.28      -0.59101
  7496.98      -0.602327
  7504.8      -0.600071
  7512.55      -0.600497
  7520.46      -0.606088
  7528.42      -0.607372
  7536.41      -0.608402
  7544.39      -0.61385
  7552.48      -0.61652
  7560.64      -0.61145
  7568.89      -0.612584
  7577.27      -0.625949
  7585.7      -0.641817
  7594.21      -0.649376
  7602.83      -0.652322
  7611.42      -0.659969
  7620.14      -0.665802
  7629.01      -0.666939
  7637.89      -0.67464
  7646.8      -0.684224
  7655.98      -0.689258
  7665.14      -0.691418
  7674.37      -0.691485
  7683.7      -0.692984
  7693.05      -0.698926
  7702.49      -0.706469
  7712.01      -0.714039
  7721.54      -0.722185
  7731.29      -0.727287
  7741.15      -0.732382
  7751.04      -0.737296
  7761.13      -0.742635
  7771.19      -0.749985
  7781.23      -0.756269
  7791.4      -0.761676
  7801.61      -0.766011
  7811.81      -0.769555
  7822.08      -0.773833
  7832.45      -0.778244
  7842.95      -0.783409
  7853.46      -0.78882
  7864.12      -0.79516
  7874.87      -0.801743
  7885.53      -0.807651
  7896.41      -0.813208
  7907.37      -0.819357
  7918.32      -0.824506
  7929.54      -0.830162
  7940.75      -0.834416
  7952.02      -0.839176
  7963.42      -0.844259
  7969.12      -0.846359

File: Mo_foil_111.xdi
# XDI/1.0 Athena/0.9.26
# Beamline.name: BM08-LISA
# Column.1: energy eV
# Column.2: mutrans
# Element.edge: K
# Element.symbol: Mo
# Facility.name: ESRF
# Facility.xray_source: Bending magnet
# Mono.d_spacing: 3.134692
# Mono.name: Si(111)
# Mono.notes: LNT cooled
# Sample.formula: Mo
# Sample.name: Mo metal foil
# Scan.start_time: 2018-10-22T15:07:35
# ///
# room temperature
#------------------------
#   energy  mutrans
  19802.854        1.43923
  19812.326        1.43897
  19821.685        1.4387
  19831.455        1.43849
  19841.352        1.43828
  19850.955        1.43813
  19860.888        1.43787
  19870.472        1.43786
  19880.273        1.4379
  19889.975        1.43813
  19899.517        1.43827
  19909.534        1.43877
  19919.109        1.43937
  19929.080        1.44016
  19938.830        1.4415
  19948.599        1.44343
  19958.687        1.44665
  19968.388        1.45194
  19973.936        1.45662
  19974.864        1.45781
  19975.977        1.45911
  19977.046        1.46032
  19978.172        1.46161
  19979.180        1.46302
  19980.087        1.46471
  19980.946        1.46651
  19981.963        1.46874
  19982.919        1.47082
  19983.971        1.47298
  19985.089        1.47568
  19986.124        1.47914
  19987.036        1.48272
  19987.896        1.48681
  19988.936        1.49244
  19989.910        1.49838
  19990.985        1.50564
  19992.125        1.51456
  19993.183        1.52603
  19994.122        1.54114
  19995.145        1.56561
  19996.071        1.59629
  19997.085        1.64149
  19998.200        1.70273
  19999.355        1.77427
  20000.383        1.84447
  20001.301        1.90593
  20002.324        1.97024
  20003.260        2.02617
  20004.275        2.08464
  20005.391        2.14435
  20006.520        2.20249
  20007.531        2.26073
  20008.436        2.32648
  20009.452        2.41686
  20010.383        2.50813
  20011.399        2.60079
  20012.533        2.68196
  20013.664        2.74307
  20014.653        2.78078
  20015.559        2.79747
  20016.439        2.79207
  20017.521        2.76179
  20018.559        2.72587
  20019.686        2.69651
  20020.812        2.68116
  20021.802        2.68128
  20022.709        2.6927
  20023.616        2.70955
  20024.576        2.72652
  20025.782        2.74012
  20026.927        2.74565
  20028.036        2.74591
  20029.001        2.74363
  20029.895        2.7413
  20030.798        2.7414
  20031.767        2.74537
  20032.803        2.75347
  20034.116        2.76674
  20035.187        2.78088
  20036.134        2.7942
  20037.020        2.80752
  20037.911        2.82067
  20038.850        2.83525
  20039.877        2.85034
  20041.010        2.86532
  20042.241        2.87842
  20043.180        2.88445
  20044.058        2.88261
  20044.944        2.87144
  20045.902        2.85293
  20046.930        2.8291
  20048.055        2.80408
  20049.154        2.78118
  20050.125        2.76055
  20051.149        2.74182
  20052.058        2.72981
  20053.034        2.72187
  20054.089        2.71753
  20055.255        2.71649
  20056.337        2.71804
  20057.291        2.72246
  20058.183        2.72838
  20059.084        2.73513
  20060.039        2.74228
  20061.245        2.74899
  20062.385        2.75332
  20063.445        2.75536
  20064.383        2.75539
  20065.258        2.75386
  20066.142        2.75057
  20067.070        2.74725
  20068.100        2.74272
  20069.224        2.73816
  20070.882        2.73105
  20072.656        2.72307
  20074.518        2.71864
  20076.877        2.72184
  20078.816        2.73465
  20080.750        2.75725
  20083.013        2.78227
  20085.440        2.8
  20087.367        2.80423
  20089.679        2.79183
  20092.011        2.76824
  20094.054        2.73927
  20096.413        2.71769
  20098.914        2.70877
  20101.096        2.71034
  20103.288        2.71607
  20105.986        2.72092
  20108.206        2.7236
  20110.759        2.72561
  20113.455        2.72682
  20115.796        2.73005
  20118.457        2.73693
  20121.142        2.74861
  20123.463        2.76156
  20126.380        2.77161
  20128.862        2.77422
  20131.393        2.76619
  20134.366        2.75271
  20136.984        2.73532
  20139.789        2.71626
  20142.765        2.69577
  20145.273        2.68192
  20148.428        2.67522
  20151.054        2.67256
  20154.086        2.66994
  20157.012        2.66955
  20159.765        2.67443
  20163.054        2.68377
  20165.805        2.69223
  20169.007        2.69811
  20172.058        2.7015
  20175.002        2.70023
  20178.283        2.6977
  20181.145        2.70277
  20184.526        2.72
  20187.483        2.74514
  20190.845        2.76421
  20193.925        2.77119
  20197.333        2.76388
  20200.581        2.74182
  20203.973        2.7074
  20207.313        2.67012
  20210.528        2.63492
  20214.103        2.61109
  20217.248        2.60564
  20220.920        2.61616
  20224.068        2.62958
  20227.940        2.63631
  20231.211        2.63796
  20235.005        2.64171
  20238.211        2.65098
  20242.012        2.66383
  20245.364        2.6801
  20249.231        2.69463
  20252.671        2.70546
  20256.717        2.70941
  20260.295        2.70918
  20264.262        2.70952
  20267.847        2.70979
  20271.759        2.70485
  20275.432        2.69592
  20279.591        2.68316
  20283.543        2.66587
  20287.397        2.64539
  20291.596        2.62972
  20295.372        2.61881
  20299.656        2.60888
  20303.376        2.60251
  20307.827        2.60543
  20311.740        2.61805
  20316.031        2.63062
  20320.310        2.643
  20324.265        2.65506
  20328.702        2.66491
  20332.723        2.67182
  20337.128        2.67569
  20341.411        2.67699
  20345.651        2.6738
  20350.166        2.66797
  20354.278        2.66012
  20358.787        2.65509
  20363.135        2.65333
  20367.579        2.64867
  20372.377        2.6379
  20376.598        2.62477
  20381.218        2.61817
  20385.917        2.61822
  20390.322        2.61869
  20395.245        2.61764
  20399.882        2.61461
  20404.421        2.61278
  20409.456        2.61696
  20413.885        2.62316
  20418.640        2.62646
  20423.705        2.62603
  20428.305        2.62339
  20433.146        2.62093
  20438.286        2.62152
  20442.778        2.62484
  20447.759        2.63007
  20452.976        2.63437
  20457.750        2.63279
  20462.871        2.62761
  20468.059        2.62448
  20472.941        2.62061
  20477.950        2.61394
  20483.326        2.60501
  20488.497        2.60099
  20493.380        2.60099
  20498.786        2.60235
  20504.048        2.60307
  20509.054        2.60268
  20514.395        2.60109
  20520.049        2.59871
  20525.266        2.59642
  20530.338        2.59432
  20535.908        2.59327
  20541.592        2.59512
  20546.955        2.59752
  20552.316        2.59623
  20558.069        2.59266
  20563.710        2.59201
  20569.177        2.59234
  20574.768        2.59409
  20580.576        2.59901
  20586.402        2.60417
  20591.909        2.60534
  20597.517        2.59972
  20603.287        2.59292
  20609.302        2.58374
  20615.093        2.57665
  20620.625        2.57384
  20626.333        2.57272
  20632.465        2.57135
  20638.591        2.56803
  20644.201        2.56445
  20649.922        2.56521
  20655.895        2.56829
  20662.204        2.57093
  20668.362        2.57157
  20674.411        2.57094
  20680.332        2.56966
  20686.294        2.56889
  20692.772        2.56856
  20699.099        2.56932
  20705.223        2.57025
  20711.308        2.57107
  20717.363        2.56918
  20723.729        2.56536
  20730.132        2.56226
  20736.477        2.55904
  20742.812        2.55363
  20748.924        2.55042
  20755.318        2.54852
  20761.788        2.54619
  20768.347        2.54181
  20774.952        2.53845
  20781.572        2.53713
  20788.058        2.53836
  20794.553        2.54182
  20801.066        2.54521
  20807.726        2.54671
  20814.504        2.54444
  20821.278        2.54195
  20828.046        2.54071
  20834.947        2.54077
  20841.634        2.54109
  20848.387        2.53909
  20855.039        2.53643
  20858.570        2.53578