Folder: XAS_database/root/data (part 3)

File: MoO3_111.xdi
# XDI/1.0 Demeter/0.9.26
# Beamline.name: BM08-LISA
# Column.1: energy eV
# Column.2: mutrans
# Column.3: murefer
# Element.edge: K
# Element.symbol: Mo
# Facility.name: ESRF
# Facility.xray_source: Bending magnet
# Mono.d_spacing: 3.134692
# Mono.name: Si(111)
# Mono.notes: LNT cooled
# Sample.formula: MoO3
# Sample.name: Molybdenum trioxide
# Sample.reference: Mo metal foil
# Scan.start_time: 2018-10-22T15:07:35
# ///
# room temperature
#------------------------
#  energy  mutrans  murefer
  19802.854       0.137185        1.43923
  19816.860       0.136189        1.43875
  19831.455       0.135418        1.43849
  19846.297       0.13478        1.43815
  19860.888       0.134857        1.43787
  19875.462       0.13405        1.43796
  19889.975       0.133524        1.43813
  19904.488       0.132364        1.4385
  19919.109       0.131854        1.43937
  19933.755       0.132274        1.44084
  19948.599       0.133551        1.44343
  19963.547       0.136126        1.44898
  19973.936       0.140443        1.45662
  19975.408       0.141271        1.45831
  19977.046       0.14227        1.46032
  19978.768       0.143429        1.4624
  19980.087       0.14451        1.46471
  19981.446       0.146043        1.46757
  19982.919       0.147787        1.47082
  19984.454       0.149999        1.4741
  19986.124       0.151786        1.47914
  19987.532       0.154388        1.48498
  19988.936       0.157696        1.49244
  19990.361       0.16112        1.50131
  19992.125       0.165991        1.51456
  19993.732       0.172738        1.53409
  19995.145       0.181961        1.56561
  19996.497       0.193912        1.61366
  19998.200       0.214295        1.70273
  19999.970       0.249888        1.81539
  20001.301       0.303775        1.90593
  20002.719       0.392317        1.99399
  20004.275       0.496934        2.08464
  20006.045       0.557432        2.17772
  20007.531       0.539334        2.26073
  20008.937       0.507556        2.36904
  20010.383       0.517274        2.50813
  20011.869       0.570369        2.63807
  20013.664       0.67663        2.74307
  20015.181       0.821572        2.79305
  20016.439       0.971343        2.79207
  20017.948        1.12545        2.74698
  20019.686        1.22714        2.69651
  20021.402        1.2733        2.6793
  20022.709        1.29846        2.6927
  20024.153        1.32598        2.71949
  20025.782        1.34519        2.74012
  20027.420        1.34075        2.74618
  20029.001        1.32077        2.74363
  20030.411        1.29993        2.74123
  20031.767        1.28998        2.74537
  20033.450        1.2982        2.75952
  20035.187        1.32072        2.78088
  20036.518        1.33946        2.79992
  20037.911        1.34569        2.82067
  20039.427        1.33629        2.84402
  20041.010        1.31907        2.86532
  20042.655        1.29802        2.88204
  20044.058        1.27896        2.88261
  20045.346        1.26815        2.86414
  20046.930        1.2597        2.8291
  20048.708        1.2551        2.79043
  20050.125        1.25525        2.76055
  20051.533        1.25795        2.73619
  20053.034        1.25808        2.72187
  20054.584        1.25538        2.71649
  20056.337        1.24617        2.71804
  20057.808        1.23316        2.72561
  20059.084        1.21938        2.73513
  20060.631        1.20447        2.74586
  20062.385        1.18895        2.75332
  20063.861        1.17603        2.75545
  20065.258        1.16271        2.75386
  20066.668        1.15162        2.74872
  20068.100        1.14444        2.74272
  20069.856        1.13959        2.73559
  20072.656        1.14105        2.72307
  20075.580        1.15149        2.71874
  20078.816        1.16889        2.73465
  20081.897        1.18391        2.77093
  20085.440        1.18932        2.8
  20088.465        1.18386        2.80006
  20092.011        1.17609        2.76824
  20095.105        1.17213        2.7273
  20098.914        1.17135        2.70877
  20102.143        1.17328        2.7133
  20105.986        1.17479        2.72092
  20109.418        1.17757        2.72452
  20113.455        1.18195        2.72682
  20117.044        1.1889        2.7328
  20121.142        1.19448        2.74861
  20124.770        1.19896        2.76726
  20128.862        1.19735        2.77422
  20132.969        1.18924        2.75943
  20136.984        1.17706        2.73532
  20141.401        1.16668        2.70606
  20145.273        1.16126        2.68192
  20149.783        1.15967        2.67338
  20154.086        1.159        2.66994
  20158.400        1.15688        2.67146
  20163.054        1.15368        2.68377
  20167.376        1.15238        2.69552
  20172.058        1.1512        2.7015
  20176.777        1.1491        2.69862
  20181.145        1.14647        2.70277
  20186.074        1.14264        2.73327
  20190.845        1.13974        2.76421
  20195.568        1.13678        2.76944
  20200.581        1.13269        2.74182
  20205.725        1.13019        2.68943
  20210.528        1.13131        2.63492
  20215.611        1.13554        2.60605
  20220.920        1.14005        2.61616
  20226.125        1.13928        2.6342
  20231.211        1.13408        2.63796
  20236.520        1.12802        2.64556
  20242.012        1.12155        2.66383
  20247.367        1.11508        2.68817
  20252.671        1.11037        2.70546
  20258.393        1.11043        2.70967
  20264.262        1.11422        2.70952
  20269.931        1.11766        2.70793
  20275.432        1.11935        2.69592
  20281.338        1.12193        2.67565
  20287.397        1.12361        2.64539
  20293.581        1.12325        2.62414
  20299.656        1.12028        2.60888
  20305.613        1.11959        2.60216
  20311.740        1.11698        2.61805
  20317.921        1.10482        2.63658
  20324.265        1.10176        2.65506
  20330.658        1.10373        2.66878
  20337.128        1.10866        2.67569
  20343.724        1.11142        2.67594
  20350.166        1.10908        2.66797
  20356.648        1.10461        2.65713
  20363.135        1.09659        2.65333
  20369.784        1.09121        2.64423
  20376.598        1.08537        2.62477
  20383.367        1.08287        2.61764
  20390.322        1.08297        2.61869
  20397.383        1.08407        2.61606
  20404.421        1.08547        2.61278
  20411.537        1.08729        2.62016
  20418.640        1.08912        2.62646
  20425.835        1.09006        2.62489
  20433.146        1.0879        2.62093
  20440.502        1.08824        2.62286
  20447.759        1.08026        2.63007
  20455.241        1.07208        2.63395
  20462.871        1.07189        2.62761
  20470.396        1.07276        2.62316
  20477.950        1.07402        2.61394
  20485.616        1.07451        2.60258
  20493.380        1.07557        2.60099
  20501.269        1.07273        2.60266
  20509.054        1.06792        2.60268
  20517.099        1.06455        2.60006
  20525.266        1.06164        2.59642
  20533.416        1.0578        2.59402
  20541.592        1.05494        2.59512
  20549.885        1.05412        2.59718
  20558.069        1.05403        2.59266
  20566.264        1.05334        2.59194
  20574.768        1.05295        2.59409
  20583.298        1.05252        2.60225
  20591.909        1.05113        2.60534
  20600.686        1.04994        2.59629
  20609.302        1.04862        2.58374
  20617.884        1.046        2.57465
  20626.333        1.04258        2.57272
  20635.340        1.04127        2.57017
  20644.201        1.04054        2.56445
  20653.201        1.0395        2.56671
  20662.204        1.03725        2.57093
  20671.097        1.03533        2.5715
  20680.332        1.03247        2.56966
  20689.702        1.02978        2.56881
  20699.099        1.02692        2.56932
  20708.152        1.02445        2.57069
  20717.363        1.02286        2.56918
  20727.027        1.02201        2.56356
  20736.477        1.01967        2.55904
  20745.766        1.01747        2.55163
  20755.318        1.01573        2.54852
  20765.164        1.01481        2.54469
  20774.952        1.01204        2.53845
  20784.641        1.01103        2.53762
  20794.553        1.00849        2.54182
  20804.683        1.00756        2.5465
  20814.504        1.00602        2.54444
  20824.521        1.00396        2.54109
  20834.947        1.00194        2.54077
  20844.921       0.999764        2.54048
  20855.039       0.99819        2.53643
  20858.570       0.998162        2.53578

File: Nb_foil_311.xdi
# XDI/1.0 Demeter/0.9.26
# Beamline.name: BM08-LISA
# Column.1: energy eV
# Column.2: mutrans
# Element.edge: K
# Element.symbol: Nb
# Facility.name: ESRF
# Facility.xray_source: Bending magnet
# Mono.d_spacing: 1.637039
# Mono.name: Si(311)
# Mono.notes: LNT cooled
# Sample.formula: Nb
# Sample.name: Nb metal foil
# Scan.start_time: 2023-06-17T21:18:03
# ///
# room temperature
#------------------------
#   energy  mutrans
  18785.591       0.0793417
  18795.314       0.0784182
  18805.139       0.0778335
  18815.109       0.0768091
  18824.947       0.0762099
  18834.876       0.0753834
  18844.863       0.0748268
  18854.739       0.0742855
  18864.696       0.0738855
  18874.626       0.0732812
  18884.594       0.0726507
  18894.662       0.0730344
  18904.858       0.072518
  18914.952       0.0727062
  18925.210       0.0733146
  18935.401       0.0744724
  18945.595       0.0769973
  18955.669       0.0814172
  18956.640       0.0818441
  18957.671       0.0824863
  18958.765       0.0833261
  18959.643       0.0841683
  18960.672       0.0850372
  18961.742       0.0859653
  18962.714       0.0870703
  18963.654       0.087974
  18964.738       0.0893533
  18965.759       0.0905605
  18966.691       0.0921078
  18967.857       0.0936048
  18968.852       0.0954417
  18969.835       0.097391
  18970.902       0.0995889
  18971.961       0.10217
  18972.847       0.104697
  18973.840       0.107959
  18974.950       0.111862
  18975.838       0.115872
  18976.875       0.121293
  18977.955       0.127628
  18978.933       0.135417
  18979.888       0.14514
  18980.985       0.157285
  18982.010       0.175522
  18982.925       0.199016
  18984.062       0.23662
  18985.027       0.289953
  18985.971       0.378351
  18986.987       0.487978
  18988.004       0.584884
  18988.949       0.637688
  18989.924       0.659904
  18991.062       0.687439
  18991.972       0.727376
  18992.931       0.777545
  18994.104       0.840814
  18995.050       0.903636
  18996.042       0.972774
  18997.113        1.04674
  18998.075        1.13212
  18999.018        1.23249
  19000.029        1.31841
  19001.105        1.38908
  19001.982        1.43087
  19002.950        1.44894
  19004.088        1.44109
  19004.995        1.41174
  19006.015        1.37128
  19007.108        1.34082
  19008.061        1.32579
  19009.040        1.32638
  19010.101        1.33664
  19011.070        1.35073
  19012.011        1.36405
  19013.017        1.37232
  19014.111        1.37452
  19014.992        1.37331
  19015.958        1.37045
  19018.222        1.37216
  19020.575        1.39657
  19022.898        1.42772
  19025.240        1.45996
  19027.745        1.48579
  19030.352        1.476
  19033.070        1.42372
  19035.756        1.37787
  19038.538        1.35788
  19041.408        1.36156
  19044.397        1.37632
  19047.506        1.38286
  19050.621        1.37421
  19053.808        1.36149
  19057.012        1.35254
  19060.406        1.36176
  19063.810        1.39208
  19067.215        1.41492
  19070.738        1.40861
  19074.477        1.37493
  19078.169        1.34993
  19082.009        1.34844
  19086.007        1.35264
  19089.910        1.35253
  19093.818        1.35385
  19097.996        1.36425
  19102.314        1.37968
  19106.436        1.38696
  19110.716        1.37655
  19115.319        1.35632
  19119.671        1.33286
  19124.187        1.31897
  19129.032        1.31293
  19133.655        1.31204
  19138.590        1.32021
  19143.384        1.32743
  19148.362        1.32889
  19153.348        1.32982
  19158.406        1.34756
  19163.422        1.36776
  19168.828        1.36718
  19173.928        1.34088
  19179.384        1.30112
  19184.887        1.27077
  19190.273        1.26922
  19196.040        1.27641
  19201.701        1.27936
  19207.527        1.29148
  19213.359        1.30751
  19219.474        1.32182
  19225.577        1.32741
  19231.757        1.32806
  19237.940        1.32145
  19244.153        1.30813
  19250.557        1.28658
  19257.006        1.2703
  19263.603        1.25852
  19270.252        1.25897
  19277.053        1.27116
  19283.800        1.28225
  19290.751        1.29167
  19297.655        1.296
  19304.718        1.29476
  19311.782        1.28806
  19319.054        1.28333
  19326.257        1.27651
  19333.535        1.26508
  19340.925        1.25937
  19348.365        1.25532
  19356.005        1.25274
  19363.489        1.25523
  19371.148        1.25781
  19378.730        1.25696
  19386.720        1.25595
  19394.640        1.25768
  19402.593        1.25894
  19410.879        1.25626
  19418.851        1.25196
  19427.289        1.24522
  19435.505        1.24005
  19443.979        1.23767
  19452.522        1.23622
  19461.053        1.23445
  19469.744        1.23203
  19478.527        1.23051
  19487.348        1.23044
  19496.482        1.22825
  19505.373        1.22756
  19514.458        1.22781
  19523.728        1.22799
  19532.709        1.22454
  19542.066        1.21856
  19551.561        1.2123
  19560.728        1.20949
  19570.134        1.20666
  19579.815        1.20447
  19589.311        1.20392
  19598.849        1.20326
  19608.412        1.20155
  19618.084        1.20032
  19627.918        1.19886
  19637.780        1.19679
  19647.692        1.19308
  19657.574        1.19017
  19667.549        1.18576
  19677.655        1.18238
  19687.774        1.17923
  19697.954        1.17631
  19708.250        1.17479
  19718.575        1.17404
  19729.034        1.17247
  19739.552        1.1707
  19750.071        1.16821
  19760.629        1.16576
  19771.281        1.1627
  19781.983        1.15911
  19792.776        1.15563
  19803.626        1.15237
  19814.579        1.14931
  19825.578        1.14703
  19836.631        1.14491
  19847.702        1.13992

File: Ru_foil_311.xdi
# XDI/1.0 Demeter/0.9.26
# Beamline.name: BM08-LISA
# Column.1: energy eV
# Column.2: mutrans
# Element.edge: K
# Element.symbol: Ru
# Facility.name: ESRF
# Facility.xray_source: Bending magnet
# Mono.d_spacing: 1.637039
# Mono.name: Si(311)
# Mono.notes: LNT cooled
# Sample.formula: Ru
# Sample.name: Ru metal foil
# Scan.start_time: 2018-09-29T17:08:35
# ///
# room temperature
#------------------------
#   energy  mutrans
  21908.408      -0.0477544
  21912.927      -0.0481622
  21917.702      -0.0482551
  21922.700      -0.0479595
  21927.574      -0.0481684
  21932.623      -0.0481402
  21937.658      -0.0481404
  21942.725      -0.0467502
  21952.295      -0.0486388
  21957.380      -0.04682
  21967.007      -0.0488556
  21972.192      -0.0469454
  21981.851      -0.0484327
  21986.832      -0.0472297
  21996.537      -0.0482881
  22006.633      -0.0485765
  22021.540      -0.0470401
  22036.189      -0.0464824
  22051.239      -0.0442644
  22066.097      -0.040479
  22077.090      -0.0352493
  22080.045      -0.0323792
  22083.139      -0.0296976
  22086.007      -0.0259607
  22088.912      -0.0214116
  22092.081      -0.0142397
  22095.065      -0.00415916
  22097.958       0.0116225
  22101.071       0.042189
  22104.035       0.114498
  22106.828       0.239014
  22110.019       0.354853
  22113.082       0.429278
  22115.936       0.538715
  22119.024       0.657449
  22122.037       0.724992
  22124.885       0.733667
  22127.955       0.691829
  22131.060       0.666794
  22133.883       0.672903
  22136.564       0.678821
  22137.993       0.685337
  22139.807       0.700737
  22141.496       0.724975
  22143.099       0.751481
  22145.134       0.778571
  22146.827       0.79906
  22148.856       0.807069
  22150.672       0.796406
  22152.602       0.772437
  22154.639       0.741853
  22156.553       0.71266
  22158.788       0.693036
  22160.759       0.683964
  22163.159       0.684044
  22165.234       0.688455
  22167.708       0.693641
  22169.848       0.698117
  22172.259       0.698606
  22174.514       0.698069
  22177.068       0.699634
  22179.564       0.704845
  22182.005       0.716269
  22184.723       0.731178
  22187.182       0.745831
  22189.963       0.753997
  22192.459       0.752797
  22195.216       0.743433
  22198.083       0.730073
  22200.766       0.717634
  22203.743       0.710419
  22206.665       0.708221
  22209.454       0.708921
  22212.619       0.707546
  22215.695       0.704404
  22218.735       0.702557
  22221.981       0.703119
  22225.208       0.707785
  22228.270       0.717341
  22231.589       0.727157
  22235.075       0.734206
  22238.488       0.736156
  22241.759       0.731552
  22245.203       0.721625
  22248.698       0.708938
  22252.355       0.694159
  22255.892       0.68337
  22259.320       0.676274
  22262.862       0.67657
  22266.659       0.683926
  22270.384       0.694352
  22274.112       0.703177
  22277.822       0.710279
  22281.599       0.7146
  22285.461       0.716015
  22289.497       0.716042
  22293.618       0.715188
  22297.581       0.714859
  22301.680       0.714942
  22305.688       0.712882
  22309.912       0.706471
  22313.999       0.697903
  22318.294       0.687892
  22322.551       0.676623
  22326.968       0.667068
  22331.424       0.662572
  22335.814       0.663081
  22340.225       0.66742
  22344.794       0.673001
  22349.305       0.679019
  22353.872       0.686943
  22358.469       0.696518
  22363.202       0.703849
  22367.868       0.707438
  22372.608       0.709231
  22377.398       0.705516
  22382.269       0.698568
  22387.186       0.69167
  22392.084       0.6849
  22397.094       0.678686
  22402.057       0.673601
  22407.036       0.666885
  22412.003       0.659904
  22417.127       0.65258
  22422.222       0.65039
  22427.305       0.654969
  22432.596       0.661956
  22438.018       0.670524
  22443.274       0.678179
  22448.484       0.686154
  22453.756       0.69038
  22459.223       0.691593
  22464.690       0.690631
  22470.342       0.683696
  22475.921       0.675429
  22481.364       0.67161
  22487.183       0.670744
  22493.155       0.668953
  22498.828       0.66625
  22504.493       0.662884
  22510.503       0.656025
  22516.553       0.651699
  22522.386       0.651923
  22528.437       0.652509
  22534.667       0.654665
  22540.561       0.657635
  22546.674       0.660723
  22552.990       0.665502
  22558.992       0.670338
  22565.176       0.673887
  22571.609       0.676844
  22577.670       0.674513
  22584.134       0.666622
  22590.561       0.660301
  22596.786       0.656587
  22603.490       0.654714
  22609.940       0.651204
  22616.478       0.645298
  22623.351       0.642606
  22629.835       0.642007
  22636.784       0.644034
  22643.401       0.647407
  22650.428       0.650347
  22657.141       0.653503
  22664.244       0.654562
  22670.977       0.653736
  22678.126       0.652542
  22684.967       0.652323
  22692.154       0.65388
  22699.057       0.653964
  22706.271       0.651428
  22713.281       0.648771
  22720.458       0.645701
  22727.445       0.641963
  22734.886       0.640197
  22741.800       0.639145
  22749.315       0.637448
  22756.420       0.63611
  22763.918       0.636485
  22771.245       0.638364
  22778.688       0.64059
  22786.452       0.641021
  22793.912       0.639805
  22801.769       0.637913
  22809.608       0.637543
  22817.316       0.637433
  22825.403       0.638773
  22833.220       0.64012
  22841.090       0.638575
  22849.268       0.635758
  22857.244       0.632441
  22865.110       0.627784
  22873.207       0.625523
  22881.453       0.624689
  22889.279       0.62365
  22897.465       0.624479
  22905.771       0.625849
  22913.909       0.627907
  22922.095       0.628358
  22930.434       0.626645
  22939.006       0.625685
  22947.252       0.624842
  22955.588       0.624308
  22958.574       0.623976